Time (s)	Acceleration x (m/s^2)	Acceleration y (m/s^2)	Acceleration z (m/s^2)
0.0	-1.077204810E-3	8.721499915E-4	-3.378747469E-3
0.01	9.552505521E-6	1.721500164E-4	5.285024079E-4
0.02	-1.726367448E-3	1.720020548E-4	1.501252437E-3
0.03	9.552808671E-4	1.461676133E-4	1.544982067E-3
0.04	-7.156467605E-4	-6.220993537E-4	3.412951875E-3
0.05	-1.333113176E-3	-2.692692454E-3	1.511622203E-3
0.06	-1.663013070E-3	-1.979049325E-3	1.564907409E-3
0.07	1.791559278E-4	-6.685031953E-4	2.449827702E-3
0.08	8.279595752E-4	3.134486772E-4	1.569407494E-3
0.09	5.347312379E-4	1.577456160E-3	2.425847095E-3
0.1	-2.705323989E-4	1.209167129E-3	1.583907733E-3
0.11	-2.393962702E-4	9.604780848E-4	2.491252432E-3
0.12	-8.058228319E-4	1.360076951E-3	2.492143332E-3
0.13	-5.042235005E-4	1.279164063E-3	2.501252229E-3
0.14	4.109661095E-4	3.564100081E-3	2.500213370E-3
0.15	1.471477655E-3	3.204186846E-3	2.601425601E-3
0.16	3.278478835E-4	1.866931986E-3	3.480065401E-3
0.17	-2.738174225E-4	-1.117021998E-3	3.347691714E-3
0.18	1.584374906E-4	-1.476540178E-3	2.623418653E-3
0.19	-1.273970091E-3	-1.597849957E-3	3.481252240E-3
0.2	1.241310810E-3	-1.597849957E-3	3.481252240E-3
0.21	1.231236768E-3	-1.597849957E-3	3.481252240E-3
0.22	9.044965859E-4	-1.597849957E-3	3.481252240E-3
0.23	-5.616956285E-4	-1.597849957E-3	3.314036741E-3
0.24	2.410148965E-4	-1.597849957E-3	2.675717878E-3
0.25	2.346496882E-4	-1.414251092E-3	3.844740892E-3
0.26	5.367505134E-5	-4.434924836E-5	5.063011963E-3
0.27	-3.484718759E-4	2.700882855E-3	3.481252240E-3
0.28	9.991747904E-4	4.649001676E-3	3.888492920E-3
0.29	2.206430718E-4	5.946941899E-3	5.019444782E-3
0.3	-5.479702813E-6	4.939420427E-3	3.481252240E-3
0.31	-5.462824202E-4	3.932022295E-3	3.706777203E-3
0.32	1.880446386E-4	2.924624355E-3	4.461252252E-3
0.33	1.727951502E-4	1.922124789E-3	4.221227052E-3
0.34	-7.448017795E-5	9.298282115E-4	3.975802902E-3
0.35000000000000003	-5.142012257E-5	-3.217064258E-4	5.441252170E-3
0.36	1.835677168E-3	-2.011611926E-3	5.441252170E-3
0.37	8.337694576E-4	-2.696869313E-3	5.707532682E-3
0.38	3.906135461E-4	-2.380297591E-3	6.411252173E-3
0.39	1.069901571E-3	-1.644956300E-3	5.563434182E-3
0.4	1.635749626E-3	-1.343950958E-3	4.063112787E-3
0.41000000000000003	2.095211177E-3	-3.557548810E-4	5.736389935E-3
0.42	3.389223484E-4	3.121500114E-4	6.411252173E-3
0.43	6.767680420E-4	9.218588014E-4	6.411252173E-3
0.44	-3.074913539E-4	2.519371745E-3	6.411252173E-3
0.45	2.143994201E-5	3.439444138E-3	6.087257193E-3
0.46	2.273723855E-3	3.703908032E-3	6.441593824E-3
0.47000000000000003	2.202148121E-3	2.669385901E-3	7.687581403E-3
0.48	9.021088561E-4	9.520176311E-4	6.411252173E-3
0.49	5.300400971E-4	-1.266058383E-3	6.411252173E-3
0.5	-8.720483886E-5	-1.846715009E-3	6.411252173E-3
0.51	-1.188818329E-3	-2.558473284E-3	6.044047671E-3
0.52	-2.611245408E-3	-3.368030839E-3	5.441252170E-3
0.53	-1.226224136E-3	-3.113672379E-3	5.822808946E-3
0.54	-3.720484085E-5	-3.273023152E-3	6.022458091E-3
0.55	-4.128730819E-5	-3.043437004E-3	5.837251542E-3
0.56	7.466238636E-4	-3.159764317E-3	6.411252173E-3
0.5700000000000001	1.443918991E-3	-2.134742797E-3	6.411252173E-3
0.58	1.286080246E-3	-1.553544899E-3	5.567461823E-3
0.59	1.819658022E-3	-1.539091803E-3	4.880397541E-3
0.6	1.357493638E-3	-6.639651037E-4	5.863194597E-3
0.61	3.681352135E-4	-4.616975623E-4	6.401252172E-3
0.62	-6.036521983E-4	-1.508644822E-3	5.954804809E-3
0.63	-2.011069165E-3	-1.483820371E-3	5.889552223E-3
0.64	-2.071852938E-3	-1.904897043E-3	6.411252173E-3
0.65	-5.544045429E-4	-1.910225151E-3	5.943276387E-3
0.66	8.835051022E-4	-2.318762912E-3	5.916404092E-3
0.67	1.822955683E-3	-3.715494775E-3	6.406278935E-3
0.68	8.084333469E-4	-4.586930592E-3	6.401252172E-3
0.6900000000000001	3.293842094E-4	-4.966873903E-3	5.904419163E-3
0.7000000000000001	-2.100271459E-4	-4.860302288E-3	5.935261333E-3
0.71	-6.154796272E-4	-3.722779784E-3	6.401252172E-3
0.72	8.734861921E-4	-2.223456638E-3	5.882890754E-3
0.73	1.215585916E-3	-1.210640723E-3	5.956789747E-3
0.74	-3.073072623E-4	-7.423572035E-4	5.868454588E-3
0.75	-1.166069896E-3	-7.322824886E-4	5.431252187E-3
0.76	-1.140280508E-3	-7.165671049E-4	5.978470843E-3
0.77	-1.121489418E-3	-7.021345783E-4	5.846857386E-3
0.78	-5.498445046E-4	9.694946212E-4	5.431252187E-3
0.79	4.256788405E-4	2.164559869E-3	4.856641794E-3
0.8	8.049831008E-4	9.884288765E-4	5.033112788E-3
0.81	7.867828538E-4	-3.850288653E-4	5.431252187E-3
0.8200000000000001	1.862800874E-4	-1.358278094E-3	4.834737185E-3
0.8300000000000001	-2.033657042E-4	-2.304649826E-3	5.055017399E-3
0.84	3.788710389E-4	-3.218986297E-3	5.431252187E-3
0.85	1.325825198E-3	-3.513687936E-3	5.431252187E-3
0.86	-1.846029868E-4	-3.436787322E-3	5.431252187E-3
0.87	-1.224291255E-3	-2.762170638E-3	4.798486586E-3
0.88	-5.770882961E-4	-1.722010735E-3	5.724953501E-3
0.89	3.903962892E-4	-7.038234723E-4	5.113018298E-3
0.9	6.480519818E-5	2.217429383E-3	3.796581994E-3
0.91	1.032864423E-3	4.089773080E-3	4.795092947E-3
0.92	1.598168918E-3	5.519299228E-3	6.093594411E-3
0.93	8.894722783E-4	5.320511316E-3	5.055313282E-3
0.9400000000000001	1.245537188E-3	4.936340003E-3	4.451252269E-3
0.9500000000000001	8.276628569E-4	3.494834055E-3	4.451252269E-3
0.96	-1.584042789E-4	3.557720594E-3	4.451252269E-3
0.97	-1.833955979E-3	3.094975391E-3	3.745676906E-3
0.98	-2.605496534E-4	2.070229677E-3	4.896903107E-3
0.99	-8.706174186E-4	-3.386858816E-4	5.431252187E-3
1.0	-1.369783088E-3	-1.100428273E-3	4.703926562E-3
1.01	-6.250165350E-4	-1.090353130E-3	4.451252269E-3
1.02	-3.772048352E-4	-1.791974059E-3	5.193232411E-3
1.03	1.098320086E-3	-1.260974489E-3	3.932791648E-3
1.04	-6.934885818E-4	4.619533090E-4	3.471252257E-3
1.05	1.546698982E-4	2.398438375E-3	3.471252257E-3
1.06	1.338041505E-3	2.798548576E-3	3.471252257E-3
1.07	7.566232230E-4	3.522733964E-3	4.249483034E-3
1.08	-2.247929878E-4	4.425606975E-3	4.451252269E-3
1.09	3.514084538E-4	4.545515339E-3	4.451252269E-3
1.1	-2.510109283E-4	4.474997479E-3	4.451252269E-3
1.11	-4.354434572E-4	4.420956771E-3	3.643866731E-3
1.12	-2.033225580E-3	1.145294921E-3	4.285887880E-3
1.1300000000000001	-7.134332876E-4	4.653768321E-4	4.451252269E-3
1.1400000000000001	-1.209547422E-3	-1.170997128E-3	3.621985837E-3
1.1500000000000001	-5.292007357E-4	-1.442241502E-3	5.144332646E-3
1.16	1.257325378E-3	-1.412019583E-3	5.431252187E-3
1.17	2.347783244E-3	-1.399165836E-3	2.878131020E-3
1.18	1.596988378E-3	-1.380333819E-3	4.207833518E-3
1.19	5.984224037E-4	-1.369017925E-3	2.720171022E-3
1.2	4.738891335E-4	-1.358943878E-3	1.618461404E-3
1.21	-1.269600997E-3	-1.348868491E-3	2.391431932E-3
1.22	-5.797595252E-4	4.089294927E-4	2.491252432E-3
1.23	-4.872048346E-4	1.468586374E-3	3.385947737E-3
1.24	3.871301010E-4	2.426484936E-3	3.471252257E-3
1.25	-1.337041177E-3	6.652035844E-4	2.562056718E-3
1.26	1.253429463E-3	1.429244298E-3	2.491252432E-3
1.27	-3.857457613E-4	-1.260086757E-3	4.338644155E-3
1.28	4.148858657E-4	-1.418348944E-3	2.589067186E-3
1.29	2.282045784E-3	-1.389124927E-3	5.306303361E-3
1.3	4.522960543E-4	-1.378200972E-3	3.540051152E-3
1.31	3.633492104E-4	-4.168341037E-3	4.424102892E-3
1.32	3.529982116E-4	-6.070081858E-3	4.451252269E-3
1.33	-2.499902784E-3	-6.009140643E-3	4.451252269E-3
1.34	-3.482119709E-3	-5.938224534E-3	2.501743615E-3
1.35	-5.352608316E-4	-4.903777730E-3	3.469246857E-3
1.36	4.127006833E-4	-2.899244566E-3	2.491252432E-3
1.37	4.026267191E-4	-9.476815191E-4	2.524263702E-3
1.3800000000000001	3.927951607E-4	-9.376075559E-4	4.403740859E-3
1.3900000000000001	4.231682596E-4	-9.275335917E-4	2.522258298E-3
1.4000000000000001	1.314142766E-3	-8.799784574E-4	3.432990299E-3
1.41	3.180666659E-4	6.489702115E-6	2.536912744E-3
1.42	-5.966649295E-4	-9.273100756E-4	3.524162741E-3
1.43	-5.276581345E-4	-9.178499946E-4	4.330931165E-3
1.44	2.514130226E-4	-9.811335209E-4	2.693484569E-3
1.45	-1.526442947E-3	-1.910225186E-3	5.281930605E-3
1.46	-1.595784829E-3	-2.864758070E-3	3.553176111E-3
1.47	-2.191081576E-3	-3.880100713E-3	4.361936939E-3
1.48	3.672150909E-4	-5.210602726E-3	3.374686867E-3
1.49	-4.065673086E-4	-1.872303094E-3	2.491252432E-3
1.5	3.328628499E-4	-3.593316442E-3	2.602318056E-3
1.51	-2.966097435E-4	-3.433497483E-3	3.589568058E-3
1.52	1.257229232E-3	-2.399721420E-3	4.451252269E-3
1.53	4.014396669E-4	-1.393657473E-3	4.451252269E-3
1.54	1.166468103E-4	-1.272045179E-4	4.451252269E-3
1.55	-1.246778199E-3	2.324625894E-3	4.451252269E-3
1.56	2.396532996E-4	2.124271764E-3	4.296531621E-3
1.57	-8.945352167E-4	1.116873741E-3	3.633222990E-3
1.58	-2.485117541E-3	1.181093708E-4	4.620473136E-3
1.59	-1.901310643E-3	-6.678499536E-4	5.078254719E-3
1.6	6.691653556E-4	-6.640974020E-4	3.839002932E-3
1.61	1.610268777E-3	-6.439494558E-4	5.431252187E-3
1.62	1.751716824E-3	-6.258256913E-4	5.431252187E-3
1.6300000000000001	-3.757438258E-4	-1.016574839E-3	5.431252187E-3
1.6400000000000001	-3.674372121E-5	-2.509154793E-3	5.218222102E-3
1.6500000000000001	-1.324676818E-3	-2.248578743E-3	4.671532444E-3
1.6600000000000001	-7.800916708E-4	-1.230319657E-3	4.976191527E-3
1.67	-1.277632945E-3	-4.730585212E-4	4.173197810E-3
1.68	-5.122654276E-4	4.880449594E-4	6.161691302E-3
1.69	-4.921174657E-4	3.817293894E-3	5.677989171E-3
1.7	-2.311446911E-4	4.823736619E-3	6.401252172E-3
1.71	2.070489214E-4	4.194823227E-3	6.401252172E-3
1.72	-2.243625390E-4	5.245266039E-3	6.401252172E-3
1.73	1.008084820E-3	5.908459494E-3	5.847442376E-3
1.74	2.368219358E-3	4.432998351E-3	5.305393623E-3
1.75	2.018935451E-3	4.033344520E-3	7.088316490E-3
1.76	9.795462342E-4	2.355466491E-3	6.401252172E-3
1.77	-8.413957195E-6	-2.939930178E-4	6.401252172E-3
1.78	-1.576386420E-3	-1.581786646E-3	6.401252172E-3
1.79	-2.836590933E-3	-1.531416702E-3	6.401252172E-3
1.8	-1.477122931E-3	-1.491128717E-3	6.730592661E-3
1.81	-7.908928168E-4	-1.464111542E-3	7.044661543E-3
1.82	-1.908520105E-4	-1.423815564E-3	6.401252172E-3
1.83	-1.430039710E-3	-1.390684817E-3	6.752343000E-3
1.84	-7.113813554E-4	-1.015795439E-3	7.022854744E-3
1.85	8.598253910E-4	-3.335669455E-5	6.401252172E-3
1.86	1.796669483E-3	1.288924352E-3	6.774152081E-3
1.87	2.345634658E-3	3.182200397E-3	7.001006566E-3
1.8800000000000001	1.523849716E-3	3.886975980E-3	6.788747848E-3
1.8900000000000001	3.327951462E-4	3.236035340E-3	7.776060123E-3
1.9000000000000001	-8.531375522E-4	2.793585417E-3	7.959101947E-3
1.9100000000000001	-2.135271822E-3	1.373349361E-3	7.381252134E-3
1.92	-1.126302814E-3	2.278984783E-4	7.381252134E-3
1.93	-5.528793004E-4	2.178244983E-4	7.381252134E-3
1.94	-1.248531747E-4	-6.325533161E-4	7.381252134E-3
1.95	8.333020098E-4	-1.694429547E-3	7.381252134E-3
1.96	2.927643958E-5	-2.105378344E-3	7.381252134E-3
1.97	-1.104149552E-3	-2.603980885E-3	7.834307416E-3
1.98	-1.215964329E-4	-2.118150584E-3	8.821557542E-3
1.99	8.508087224E-4	-1.573537075E-3	8.873696641E-3
2.0	8.731445681E-4	-1.548160040E-3	8.361252146E-3
2.0100000000000002	3.578762139E-4	-1.045956310E-3	7.397140665E-3
2.02	-1.265248596E-4	-5.278641479E-4	6.401252172E-3
2.0300000000000002	-1.098771293E-3	-1.004348764E-3	7.394520520E-3
2.04	-1.062959548E-3	-9.687471671E-4	7.857291782E-3
2.05	4.243503503E-4	1.292763012E-5	7.381252134E-3
2.06	8.137536985E-4	-3.572974508E-5	7.381252134E-3
2.07	8.524126903E-4	-1.002831929E-3	7.906962855E-3
2.08	1.276480018E-3	-1.431534825E-3	7.828291311E-3
2.09	1.877164401E-4	-2.476388881E-3	8.461844087E-3
2.1	-1.195704737E-3	-3.265206965E-3	7.698406184E-3
2.11	-1.585881000E-3	-4.827151001E-3	7.510983036E-3
2.12	6.138986375E-4	-5.391016869E-3	7.237021033E-3
2.13	-1.142819700E-5	-4.272005415E-3	6.970617825E-3
2.14	-1.054705223E-3	-4.286788879E-3	6.804636356E-3
2.15	-1.207239455E-3	-3.982279133E-3	6.985118060E-3
2.16	-1.551008314E-3	-2.339235232E-3	6.790043089E-3
2.17	-3.423787151E-4	-9.332221675E-4	6.999772563E-3
2.18	9.691149977E-4	3.937654974E-5	6.775481637E-3
2.19	1.863262655E-3	9.776387942E-4	6.401252172E-3
2.2	3.509707751E-4	6.892206749E-4	6.401252172E-3
2.21	4.994173039E-4	3.157467393E-4	6.401252172E-3
2.22	5.415469107E-4	-2.967119213E-4	6.401252172E-3
2.23	1.862428800E-4	-6.081931608E-4	6.401252172E-3
2.24	-4.401231838E-4	-5.779696098E-4	6.401252172E-3
2.25	-1.139307825E-4	-1.184320940E-3	6.401252172E-3
2.2600000000000002	-4.408063024E-4	-2.117901873E-3	5.744101197E-3
2.27	-1.370439544E-3	-2.993143487E-3	6.095579282E-3
2.2800000000000002	-1.622591209E-3	-3.811667144E-3	6.401252172E-3
2.29	-9.005386509E-4	-3.288213658E-3	6.401252172E-3
2.3000000000000003	-5.972048340E-4	-1.557635904E-3	7.094287410E-3
2.31	8.883327548E-5	-9.707037009E-4	7.381252134E-3
2.32	-3.231248704E-4	-2.602692758E-4	6.673671478E-3
2.33	1.130376014E-4	7.050982380E-4	4.978884786E-3
2.34	3.727951481E-4	9.474136580E-4	5.173333128E-3
2.35	-3.342094296E-4	1.619385956E-3	6.153141084E-3
2.36	-5.696886999E-4	1.829601592E-3	5.672187163E-3
2.37	-5.596135061E-4	2.520550456E-3	5.431252187E-3
2.38	-5.572048088E-4	1.960251623E-3	5.431252187E-3
2.39	-1.276992288E-3	1.675712094E-3	6.181998291E-3
2.4	-1.448136673E-3	1.463054687E-4	6.401252172E-3
2.41	-6.563312045E-4	-2.778499642E-4	4.863167858E-3
2.42	-4.392432296E-4	-2.698883844E-4	6.003762895E-3
2.43	1.105868279E-3	-2.758868068E-4	5.621678773E-3
2.44	6.879045413E-4	-2.697388493E-4	4.636361641E-3
2.45	1.264010337E-3	-2.596648472E-4	6.047348603E-3
2.46	6.151452220E-4	5.350226761E-4	4.790729647E-3
2.47	-3.571796857E-4	-1.061579109E-4	4.451252269E-3
2.48	2.898721482E-4	1.337896860E-3	5.275143283E-3
2.49	-3.715121351E-4	2.397080653E-3	6.254041847E-3
2.5	3.042276045E-4	4.132232001E-3	5.571263162E-3
2.5100000000000002	4.341645750E-4	6.024696752E-3	4.585456564E-3
2.52	2.121477624E-3	4.532535330E-3	3.598206411E-3
2.5300000000000002	1.486163608E-3	4.201921637E-3	5.191844054E-3
2.54	4.952490475E-4	2.412795222E-3	5.431252187E-3
2.5500000000000003	1.230811794E-3	2.155370526E-3	4.556456096E-3
2.56	1.314791353E-3	3.787778489E-4	4.451252269E-3
2.57	4.142684138E-4	1.053448601E-3	3.561801560E-3
2.58	3.044951338E-4	-6.238014728E-4	6.152204498E-3
2.59	3.027951506E-4	-7.786259626E-4	3.698623435E-3
2.6	3.027951506E-4	-7.778499530E-4	2.560051409E-3
2.61	-5.969120970E-4	-7.684780182E-4	5.246605718E-3
2.62	-1.554568205E-3	-7.489581399E-4	5.431252187E-3
2.63	-6.741065889E-4	1.662054301E-4	4.498154028E-3
2.64	3.035554708E-4	-7.090148536E-4	4.451252269E-3
2.65	1.271062114E-3	2.056289787E-3	4.451252269E-3
2.66	2.218677354E-3	3.048545384E-3	4.451252269E-3
2.67	-6.238882992E-4	3.032880363E-3	4.451252269E-3
2.68	1.251616236E-3	3.942157845E-3	3.481895999E-3
2.69	-6.704521231E-4	2.945647527E-3	3.471252257E-3
2.7	-6.851034683E-4	2.898016554E-3	4.447241565E-3
2.71	-2.573651929E-3	1.858597092E-3	3.482513128E-3
2.72	2.948508782E-4	-1.027661105E-3	4.451252269E-3
2.73	-6.627030483E-4	-1.043085286E-3	4.425491163E-3
2.74	-1.541856094E-3	-2.010187352E-3	3.438241086E-3
2.75	3.323843159E-4	-2.976057103E-3	2.531513766E-3
2.7600000000000002	3.223102540E-4	-3.819361162E-3	3.471252257E-3
2.77	3.654694858E-4	-2.810692600E-3	3.581083835E-3
2.7800000000000002	1.129731934E-3	-1.908747167E-3	5.182588382E-3
2.79	-6.857881663E-4	-2.806433299E-3	1.650084291E-3
2.8000000000000003	-6.672048082E-4	-2.634686362E-3	3.394670461E-3
2.81	-5.030414649E-4	-8.270037598E-4	2.491252432E-3
2.82	1.180683918E-3	-7.275996149E-4	2.582433196E-3
2.83	2.817893361E-4	5.357922076E-5	3.274110658E-3
2.84	6.547261742E-5	-8.267701582E-4	1.828714870E-3
2.85	-1.423370370E-3	-8.178499782E-4	4.225110220E-3
2.86	1.736830558E-4	-8.153940515E-4	2.611592461E-3
2.87	-5.520859901E-4	-9.242720798E-4	3.343526790E-3
2.88	4.163724818E-4	-1.897295931E-3	2.491252432E-3
2.89	1.249895260E-3	-2.981888121E-3	2.775440164E-3
2.9	9.368938648E-4	-4.738174174E-3	4.152300534E-3
2.91	-5.536773622E-4	-5.664980362E-3	2.491252432E-3
2.92	2.511219195E-4	-6.267181077E-3	2.327276283E-3
2.93	7.328949091E-5	-5.237859381E-3	1.682505417E-3
2.94	-5.503970288E-4	-3.848312468E-3	2.669882977E-3
2.95	4.248823968E-4	-1.241969162E-3	3.471252257E-3
2.96	8.204749592E-4	-4.498206832E-4	3.278121478E-3
2.97	-5.409132797E-4	-4.578499844E-4	2.691633358E-3
2.98	2.227951468E-4	-2.544563021E-4	3.471252257E-3
2.99	1.010662403E-5	2.894614868E-4	3.041489858E-3
3.0	-5.273401794E-4	-2.502519767E-4	2.177646105E-3
3.0100000000000002	-4.245649152E-6	4.898093800E-4	4.221870834E-3
3.02	-7.423748454E-4	2.478962281E-4	3.471252257E-3
3.0300000000000002	-7.247146764E-4	-7.269055677E-4	3.471252257E-3
3.04	-9.634013381E-4	-1.691481969E-3	3.471252257E-3
3.0500000000000003	-1.671925428E-3	-2.643341855E-3	3.471252257E-3
3.06	-1.654491175E-3	-3.053768409E-3	3.471252257E-3
3.0700000000000003	-1.638841849E-3	-2.039083910E-3	3.744442915E-3
3.08	-1.336764004E-3	-1.586844153E-3	4.170811515E-3
3.09	-3.524495564E-4	-1.679532565E-3	3.183561419E-3
3.1	4.387336967E-5	-2.878499938E-4	2.491252432E-3
3.11	-6.272048296E-4	-2.909340571E-4	2.491252432E-3
3.12	-9.304820395E-4	3.118635902E-4	2.491252432E-3
3.13	-9.567467236E-4	1.622450619E-3	2.491252432E-3
3.14	3.594880480E-4	1.913017312E-3	2.815348110E-3
3.15	2.821148934E-5	3.187936151E-3	2.477214796E-3
3.16	-9.388906660E-4	4.424509383E-3	1.547040270E-3
3.17	-1.560145601E-3	4.008601497E-3	3.125351815E-3
3.18	-1.194009948E-3	3.677324627E-3	2.491252432E-3
3.19	-2.104794042E-4	3.183585594E-3	2.851655390E-3
3.2	3.990425920E-4	1.300892288E-3	3.103501635E-3
3.21	-3.493197383E-4	5.400350767E-4	2.491252432E-3
3.22	-7.870977427E-4	-6.578499706E-4	2.109249836E-3
3.23	2.133420538E-5	-6.538764257E-4	1.511252234E-3
3.24	-5.531563344E-4	-6.518984620E-4	1.908003475E-3
3.25	-5.472048258E-4	-6.578499706E-4	2.087251062E-3
3.2600000000000002	-1.400858157E-4	-2.549280615E-4	2.333884486E-3
3.27	-4.017003911E-4	1.122373519E-3	3.471252257E-3
3.2800000000000002	-2.468710779E-4	2.626325935E-3	3.045346434E-3
3.29	5.310387618E-4	3.130053621E-3	2.491252432E-3
3.3000000000000003	-5.527117434E-4	3.511019504E-3	2.931573512E-3
3.31	-9.857942460E-4	4.414190126E-3	3.471252257E-3
3.3200000000000003	-1.497917846E-3	4.864289014E-3	2.561130998E-3
3.33	-1.024894059E-3	5.252003461E-3	2.435873736E-3
3.34	-5.072048472E-4	4.294301488E-3	3.001691480E-3
3.35	-5.023394146E-4	2.717822885E-3	2.491252432E-3
3.36	-1.808312753E-5	7.707238229E-4	2.007191236E-3
3.37	-1.350266296E-5	-1.192836567E-3	1.511252234E-3
3.38	-9.805801406E-4	-1.177673603E-3	2.009892133E-3
3.39	-9.360762100E-4	-1.162687036E-3	2.491252432E-3
3.4	-4.519679273E-4	-1.152613072E-3	3.004468168E-3
3.41	-4.472048094E-4	-1.137228191E-3	2.950786402E-3
3.42	-9.641511558E-4	-1.122465069E-3	3.018968400E-3
3.43	-3.481901359E-4	-5.883528717E-5	2.401319875E-3
3.44	-5.461045914E-4	1.347767780E-3	2.053468641E-3
3.45	2.146307946E-4	1.760934560E-3	2.491252432E-3
3.46	1.475748072E-3	3.922809492E-3	3.048123130E-3
3.47	1.445526127E-3	3.851005515E-3	3.471252257E-3
3.48	8.555937959E-4	1.999118311E-3	2.899881324E-3
3.49	-1.240173799E-4	4.308120175E-4	2.491252432E-3
3.5	-5.172048302E-4	-9.417646653E-4	1.905381042E-3
3.5100000000000002	6.995673175E-5	-1.321796748E-3	1.511252234E-3
3.52	-1.353824219E-4	-1.899900673E-3	2.111683629E-3
3.5300000000000002	8.811006205E-5	-2.844561315E-3	2.491252432E-3
3.54	-1.558592767E-4	-3.793954702E-3	1.876323080E-3
3.5500000000000003	-5.172048302E-4	-4.731974645E-3	2.133472182E-3
3.56	-1.133883551E-3	-4.406204920E-3	1.861726079E-3
3.5700000000000003	-1.470706053E-3	-4.635734050E-3	1.511252234E-3
3.58	-8.164508265E-4	-4.280802728E-3	2.155433099E-3
3.59	1.542842354E-4	-1.966910135E-3	2.491252432E-3
3.6	1.118033635E-3	-9.711287002E-4	1.832571328E-3
3.61	1.419204710E-3	-9.678499097E-4	2.177183440E-3
3.62	8.017115125E-5	-9.678499097E-4	2.491252432E-3
3.63	-1.200692964E-3	-9.609067448E-4	2.491252432E-3
3.64	-8.025062430E-4	-9.578499266E-4	4.282079417E-4
3.65	-5.001125713E-4	-9.507576838E-4	1.636375312E-3
3.66	1.907976805E-4	-9.478499436E-4	3.193588225E-3
3.67	-2.323095407E-4	-1.642954687E-3	2.052080124E-3
3.68	-1.206726303E-3	-2.595427446E-3	2.228088532E-3
3.69	-7.431185305E-4	-2.825684013E-3	1.767165991E-3
3.7	2.217436830E-4	-4.944695417E-3	2.973925029E-3
3.71	4.552573643E-4	-4.160293107E-3	1.993846698E-3
3.72	4.527951519E-4	-3.645013518E-3	1.927040026E-5
3.73	-1.038314519E-3	-2.131368013E-3	1.057734229E-3
3.74	-1.471684565E-3	-2.415060715E-3	7.507612247E-4
3.75	-6.916295108E-4	-1.844440477E-3	2.066734897E-3
3.7600000000000002	-1.244288144E-3	-8.528585888E-4	3.266243676E-3
3.77	-6.569813114E-4	-6.318858287E-4	2.689010926E-3
3.7800000000000002	1.105666295E-3	1.455295686E-4	9.122691761E-4
3.79	6.696653700E-4	3.240187190E-4	1.328119444E-3
3.8000000000000003	1.270530046E-3	3.139444403E-4	3.119544416E-3
3.81	1.426236021E-3	-4.909666520E-4	1.037063688E-3
3.8200000000000003	5.957952876E-4	-6.494964509E-4	2.168545062E-3
3.83	-1.202142737E-3	-6.478499876E-4	8.394594753E-4
3.84	9.756227576E-4	-6.563528074E-4	5.312524087E-4
3.85	1.395641000E-3	-6.492729349E-4	5.312524087E-4
3.86	5.276920069E-4	-6.391989708E-4	5.312524087E-4
3.87	-4.535309750E-4	-6.291249263E-4	2.241354755E-3
3.88	-5.684058433E-4	-2.334854630E-3	1.628950939E-3
3.89	-1.427883206E-3	-1.689425618E-3	1.511252234E-3
3.9	-6.514563104E-4	-6.921014442E-4	6.344508350E-4
3.91	3.099189351E-4	2.782961514E-4	1.415443107E-3
3.92	-4.704678428E-4	2.127772492E-3	1.511252234E-3
3.93	3.323308293E-4	4.053709847E-3	6.125462258E-4
3.94	4.035506909E-4	4.156683244E-3	1.437208492E-3
3.95	3.841582665E-4	5.000127112E-3	1.511252234E-3
3.96	3.827951311E-4	5.916859430E-3	1.511252234E-3
3.97	-5.259786774E-4	5.905885026E-3	1.511252234E-3
3.98	3.388153327E-4	3.993774409E-3	5.761484470E-4
3.99	-5.403340554E-4	1.055834873E-3	-1.353470154E-3
4.0	-2.457047385E-3	2.228685290E-6	-4.791365402E-4
4.01	-1.540815696E-3	-9.847112622E-4	-4.487477892E-4
4.0200000000000005	-5.530933502E-4	-9.980120792E-4	2.443586904E-3
4.03	-5.372048428E-4	-9.978499518E-4	1.519890674E-3
4.04	4.314210341E-4	-9.778783178E-4	1.511252234E-3
4.05	4.169018294E-4	-9.778499858E-4	5.372685121E-4
4.0600000000000005	-5.372048428E-4	-9.515883763E-4	1.497986062E-3
4.07	-5.372048428E-4	9.822476183E-4	5.312524087E-4
4.08	-4.822386820E-4	1.976549520E-3	5.312524087E-4
4.09	1.367421279E-3	3.840720683E-3	5.312524087E-4
4.1	4.123637672E-4	3.883677073E-3	5.735257009E-4
4.11	4.017814487E-4	5.589766825E-3	1.511252234E-3
4.12	3.822143036E-4	3.669245883E-3	1.511252234E-3
4.13	3.099335078E-4	3.428326536E-3	1.575423508E-3
4.14	-6.578974380E-4	5.207647619E-4	2.419830996E-3
4.15	-1.478520953E-3	-1.199166066E-3	1.511252234E-3
4.16	-4.928988766E-4	-3.830341112E-4	1.597314574E-3
4.17	2.915105008E-4	-1.266899079E-3	2.118506800E-3
4.18	-5.782311065E-4	-1.255797396E-3	-1.227595725E-3
4.19	-4.804788118E-4	-1.236749650E-3	3.155998296E-4
4.2	3.827951311E-4	-1.227849934E-3	-1.083518918E-3
4.21	1.418488891E-4	-1.225353085E-3	1.633598026E-3
4.22	-1.801371376E-3	-9.497120018E-4	2.102059767E-3
4.23	-3.191845081E-3	7.407522169E-4	-4.487477892E-4
4.24	-1.352973726E-3	5.879188876E-4	-3.045166461E-4
4.25	-6.671402913E-4	-9.946023133E-5	5.312524087E-4
4.26	-1.326828465E-3	3.994971894E-4	8.487651056E-4
4.2700000000000005	-4.972048176E-4	-1.216154958E-3	2.325142812E-3
4.28	-4.972048176E-4	-1.206082301E-3	1.338020680E-3
4.29	-3.203786299E-4	-1.196008031E-3	7.117624521E-4
4.3	2.768262953E-4	-1.185932707E-3	1.135480134E-3
4.3100000000000005	-5.052136556E-4	-1.558166410E-3	1.366608418E-4
4.32	-6.975259321E-4	-3.081654507E-3	2.086479858E-3
4.33	-1.257568376E-3	-3.877143220E-3	7.408888024E-4
4.34	-4.849913623E-4	-6.226020287E-3	1.511252234E-3
4.3500000000000005	-4.772048516E-4	-3.888695247E-3	1.286961376E-3
4.36	-2.503891372E-4	-3.616858302E-3	7.627934093E-4
4.37	4.803585074E-4	-3.069331116E-3	7.948787771E-4
4.38	-2.603074109E-4	-3.293256781E-3	-1.428747987E-3
4.39	-1.689796132E-3	-1.564518719E-3	-6.687542272E-4
4.4	-2.795570413E-5	-8.325296319E-4	2.293339486E-3
4.41	-1.431736551E-3	-8.178499782E-4	3.111522812E-3
4.42	-1.686784518E-3	-8.150418607E-4	-4.487477892E-4
4.43	-2.094758644E-3	-5.254038682E-4	-7.311939699E-4
4.44	-1.391292640E-3	-1.175462081E-4	-1.139051708E-3
4.45	-1.374174707E-3	-8.078499952E-4	-1.518013703E-4
4.46	-7.649252119E-4	-1.108989803E-3	8.354966869E-4
4.47	-4.404730721E-5	-1.771490775E-3	1.199651455E-3
4.48	-1.048353832E-3	-2.070193694E-3	5.312524087E-4
4.49	-7.099783368E-4	-3.356741780E-3	2.051512718E-4
4.5	-1.357204800E-3	-4.620842073E-3	-1.153965167E-4
4.51	-1.353729283E-3	-4.570472197E-3	1.906510320E-4
4.5200000000000005	-1.347204817E-3	-4.175800487E-3	-7.965993001E-4
4.53	-9.920473907E-4	-2.452377608E-3	-1.073590485E-3
4.54	-3.672048289E-4	-5.778499668E-4	-8.112537834E-4
4.55	-3.672048289E-4	-5.816229813E-4	-6.892357348E-4
4.5600000000000005	-3.672048289E-4	1.546213358E-4	9.082584993E-4
4.57	9.209483469E-6	9.578937069E-4	1.511252234E-3
4.58	2.052837226E-4	3.581550469E-4	7.282394354E-4
4.59	-7.760241398E-4	7.428301336E-4	3.488908580E-4
4.6000000000000005	-5.531720175E-4	1.303860959E-3	1.511252234E-3
4.61	5.827951639E-4	1.283713031E-3	1.511252234E-3
4.62	5.785026906E-4	8.429039558E-4	6.699299577E-4
4.63	-2.742944364E-4	-1.426618877E-4	-4.487477892E-4
4.64	-1.362765067E-3	-6.778499366E-4	-8.838407813E-4
4.65	-1.352691268E-3	-6.733364048E-4	-1.428747987E-3
4.66	-1.792348141E-3	-6.678499536E-4	-1.428747987E-3
4.67	-1.398408945E-3	-6.678499536E-4	-5.146158437E-4
4.68	-8.115209396E-4	-6.678499536E-4	-8.616958032E-4
4.69	-1.798771072E-3	-6.678499536E-4	-2.880313750E-3
4.7	-1.818616735E-3	2.751250571E-4	-2.909931210E-3
4.71	-8.161785059E-4	1.738296684E-3	-1.922681261E-3
4.72	-8.054875606E-4	3.183613865E-3	-4.421146515E-4
4.73	-7.814506857E-4	4.597034993E-3	5.312524087E-4
4.74	7.031871465E-4	4.503078566E-3	1.547194543E-3
4.75	6.076101494E-4	4.485827019E-3	1.460810057E-3
4.76	-3.172048440E-4	3.855882029E-3	5.312524087E-4
4.7700000000000005	-3.117995200E-4	2.370807331E-3	5.312524087E-4
4.78	-8.386970711E-4	8.336862735E-4	-5.719231608E-6
4.79	-1.271651519E-3	-5.809650466E-4	-9.929695541E-4
4.8	-7.156461860E-4	-1.007849935E-3	-1.428747987E-3
4.8100000000000005	-8.403781265E-4	-1.002147127E-3	-8.698717315E-4
4.82	-1.811777481E-3	-9.978499518E-4	-1.014874172E-3
4.83	-1.637977675E-3	-9.919991824E-4	-2.002124045E-3
4.84	-1.227204835E-3	-9.878499688E-4	-1.247494637E-3
4.8500000000000005	-1.221206104E-3	-3.999733623E-4	1.391289430E-4
4.86	-4.516954531E-5	5.751313029E-4	5.312524087E-4
4.87	1.302971471E-3	2.132502678E-3	-7.121942483E-5
4.88	1.063013908E-3	2.853483160E-3	-1.058529137E-3
4.89	8.206004336E-5	3.427700058E-3	-8.117165077E-4
4.9	-9.014862647E-4	3.740298702E-3	-4.487477892E-4
4.91	-1.875848005E-3	3.064841525E-3	-1.080279508E-3
4.92	-1.571904957E-3	2.682595373E-3	-1.428747987E-3
4.93	-1.866644521E-3	1.373494137E-3	-2.074779455E-3
4.94	-8.837680316E-4	6.954828202E-4	-1.101978053E-3
4.95	-2.272048339E-4	-6.157392074E-4	2.119386502E-4
4.96	-1.542630623E-3	-1.234218597E-3	5.312524087E-4
4.97	-1.475128613E-3	-1.882367478E-3	-1.439342691E-4
4.98	-4.847681570E-4	-2.839395706E-3	-1.131184606E-3
4.99	-1.872048320E-4	-3.106737010E-3	-7.390610711E-4
5.0	-1.872048320E-4	-3.766445472E-3	2.482989510E-4
5.01	5.099492572E-4	-2.614792970E-3	-1.730890251E-4
5.0200000000000005	7.120375811E-5	-2.740396820E-3	2.628437421E-4
5.03	-1.972048383E-4	-1.552831821E-3	5.312524087E-4
5.04	-9.307055383E-4	-1.027849994E-3	-1.647022348E-3
5.05	-1.187204810E-3	-1.020366858E-3	-1.675406084E-3
5.0600000000000005	-4.464963396E-4	-2.846997288E-4	-2.169456061E-3
5.07	-2.072048329E-4	6.848810216E-4	-9.127552387E-4
5.08	-2.072048329E-4	-5.829295569E-4	1.061744985E-3
5.09	5.397304742E-4	-1.020069359E-3	7.487559006E-4
5.1000000000000005	-1.695145156E-5	-1.771887381E-3	-2.384943620E-4
5.11	-2.272048339E-4	-3.500129201E-3	-1.225744651E-3
5.12	-1.787695921E-3	-3.865839940E-3	-2.212994401E-3
5.13	-1.393660949E-3	-4.617160444E-3	-8.255045503E-4
5.14	-1.989801944E-3	-4.765241761E-3	-4.487477892E-4
5.15	-1.352827309E-3	-4.716719731E-3	-4.487477892E-4
5.16	-1.168904825E-3	-4.674649882E-3	-4.487477892E-4
5.17	-3.549271341E-4	-3.009798568E-3	-4.487477892E-4
5.18	-1.008210610E-3	-1.023598413E-3	-4.487477892E-4
5.19	-3.220528882E-4	-7.178499618E-4	-1.283899897E-3
5.2	-1.858021254E-4	-7.092526837E-4	-2.271282201E-3
5.21	-1.037011239E-3	-6.991784997E-4	-7.091349483E-4
5.22	-2.006770404E-3	1.417156154E-4	-1.305804514E-3
5.23	-3.897721109E-4	-5.933371567E-4	-1.428747987E-3
5.24	-1.019868173E-3	-6.989565573E-4	-5.571910224E-4
5.25	6.035066496E-4	-6.978499958E-4	-4.487477892E-4
5.26	-9.605549154E-4	-6.978499958E-4	-2.221140420E-3
5.2700000000000005	-1.138087847E-3	-2.466538776E-3	-1.515286537E-3
5.28	-1.128013884E-3	-3.510988603E-3	-2.329458963E-3
5.29	-2.025901569E-3	-4.458751810E-3	-1.500786308E-3
5.3	-2.993738640E-3	-4.490494306E-3	-1.428747987E-3
5.3100000000000005	-2.898192004E-4	-4.431372729E-3	-5.062859253E-4
5.32	7.935333347E-4	-1.629227270E-3	-1.378459927E-3
5.33	-1.021861656E-3	-5.311780654E-4	-4.916382261E-4
5.34	-1.097568386E-3	-4.974863564E-4	-1.393114469E-3
5.3500000000000005	-1.552986514E-4	1.376252020E-3	-4.771312344E-4
5.36	-2.974451856E-3	4.732832812E-4	-4.487477892E-4
5.37	-1.388544502E-4	1.398550086E-3	-4.487477892E-4
5.38	8.562974843E-4	3.329087009E-3	-3.368848526E-3
5.39	-1.184264969E-4	3.291507614E-3	-4.487477892E-4
5.4	-2.049101471E-3	2.256025322E-3	-4.647906016E-4
5.41	-1.067048995E-3	2.871901079E-4	-2.378204298E-3
5.42	-1.034913012E-3	-6.357879518E-4	-4.037044998E-4
5.43	-8.750868069E-5	3.018461748E-4	1.451699238E-3
5.44	-6.117237058E-5	2.557382543E-4	-4.487477892E-4
5.45	7.651407926E-4	-6.673981277E-4	-4.930268148E-4
5.46	-1.086150174E-3	-6.578499706E-4	-1.480424378E-3
5.47	-1.183253943E-3	-6.572486809E-4	-2.290894472E-3
5.48	-2.928991599E-3	-5.830136673E-4	-5.149348797E-4
5.49	-1.986454140E-3	4.570367963E-4	-1.428747987E-3
5.5	-1.895704733E-3	2.160649907E-3	-1.348071080E-3
5.51	-9.872047768E-4	1.599426403E-3	-5.366886130E-4
5.5200000000000005	-9.881775531E-4	4.928568997E-3	-1.428747987E-3
5.53	-9.961580950E-4	3.127963005E-3	-1.326166465E-3
5.54	-9.860840483E-4	2.870245287E-3	-5.585793926E-4
5.55	-1.090702393E-3	8.791812465E-4	-1.311666226E-3
5.5600000000000005	-1.679770894E-3	-2.224375048E-4	-5.730991997E-4
5.57	1.545106050E-4	3.485288033E-3	-1.428747987E-3
5.58	7.279643050E-4	9.356667214E-5	-1.428747987E-3
5.59	-1.080305793E-3	-4.393218724E-5	-1.282665750E-3
5.6000000000000005	-1.592104851E-3	-8.762853568E-4	-6.020801119E-4
5.61	-1.061987372E-4	-8.645717520E-4	-1.107481897E-3
5.62	-5.844065714E-4	-8.478499272E-4	3.631378012E-4
5.63	6.740546168E-4	-8.478499272E-4	-6.240123082E-4
5.64	-9.253411023E-4	-8.459862439E-4	-1.246106669E-3
5.65	-9.172048026E-4	-8.359122799E-4	-4.487477892E-4
5.66	-7.220749412E-4	-8.278499612E-4	-4.487477892E-4
5.67	-1.495108711E-4	-2.188462490E-4	-4.487477892E-4
5.68	-7.098496479E-4	2.295185203E-3	-4.487477892E-4
5.69	2.596061271E-4	3.023209316E-3	-4.487477892E-4
5.7	7.864988971E-4	2.534939063E-3	-4.487477892E-4
5.71	-1.983680905E-4	5.498235118E-4	-4.487477892E-4
5.72	-9.347477358E-4	-9.278499776E-4	-2.079512293E-4
5.73	-1.170189226E-3	-1.170834418E-3	2.832057539E-4
5.74	-2.137330788E-3	-2.643438890E-3	-7.040847919E-4
5.75	-2.319204929E-3	-4.517149367E-3	-1.691407632E-3
5.76	-6.129138757E-4	-4.033881649E-3	-1.869153572E-3
5.7700000000000005	3.542309132E-4	-4.965148415E-3	-4.487477892E-4
5.78	7.554411154E-4	-5.600434546E-3	-4.487477892E-4
5.79	-2.329533359E-4	-5.539990498E-3	-4.487477892E-4
5.8	-9.072048196E-4	-5.186696010E-3	-4.487477892E-4
5.8100000000000005	-6.040797782E-4	-4.162224683E-3	-7.549979004E-4
5.82	6.279515662E-5	-2.523831154E-3	-4.879293047E-4
5.83	5.952111254E-5	-5.178499756E-4	8.695396173E-4
5.84	5.279515615E-5	-5.178499756E-4	-1.206412837E-4
5.8500000000000005	-2.757173659E-4	-5.178499756E-4	5.312524087E-4
5.86	-1.242819537E-3	-5.178499756E-4	5.312524087E-4
5.87	-8.283444346E-4	-5.178499756E-4	5.312524087E-4
5.88	6.856319905E-4	-5.178499756E-4	5.312524087E-4
5.89	4.198112597E-4	-1.239320017E-3	5.312524087E-4
5.9	6.473369858E-4	-2.818138085E-3	-2.120790744E-4
5.91	-3.346139559E-4	-4.517812089E-3	-6.707247922E-4
5.92	-9.172048026E-4	-5.871880819E-3	-2.412710036E-4
5.93	-9.131893834E-4	-5.231788040E-3	-1.035236151E-3
5.94	-1.299787890E-3	-4.389968446E-3	-4.487477892E-4
5.95	-1.454964539E-3	-3.195357799E-3	-8.568241175E-4
5.96	-8.729658421E-4	-3.160894168E-3	-1.013331536E-3
5.97	-8.628918785E-4	-1.874163340E-3	-4.487477892E-4
5.98	-4.316751259E-4	-2.078499667E-4	-1.883109986E-5
5.99	-7.481555819E-4	-2.123108543E-4	9.408560546E-5
6.0	-1.372787963E-3	-2.178499730E-4	-4.487477892E-4
6.01	-8.325960068E-4	-2.178499730E-4	4.545861250E-4
6.0200000000000005	-3.728990751E-4	-2.225335298E-4	5.932735350E-4
6.03	1.380367750E-4	-2.326083522E-4	1.757375376E-5
6.04	-8.045356267E-4	-2.426815795E-4	-4.157418021E-4
6.05	-1.316650636E-3	-2.478499686E-4	-4.672616469E-4
6.0600000000000005	-1.290296295E-3	-2.528302846E-4	4.318050841E-5
6.07	-7.916153070E-4	-1.238385138E-3	-9.440698088E-4
6.08	1.676660597E-4	-2.182462616E-3	-4.234455171E-4
6.09	1.575913113E-4	-2.152238424E-3	5.312524087E-4
6.1000000000000005	1.527951493E-4	-2.122016434E-3	1.402577375E-5
6.11	-3.662479387E-4	-1.583455797E-3	6.000403881E-4
6.12	-2.963987730E-4	-6.016188439E-4	9.795961575E-4
6.13	1.482949158E-4	-1.578499818E-4	-5.467015860E-4
6.140000000000001	-3.822843357E-4	-1.578499818E-4	-8.825208756E-4
6.15	-8.015561982E-4	1.474599603E-3	-4.487477892E-4
6.16	-7.914815493E-4	3.258691835E-3	-4.487477892E-4
6.17	-7.814075587E-4	3.617366340E-3	6.875154485E-4
6.18	-7.713335754E-4	2.987411888E-3	2.086634089E-3
6.19	-1.905182107E-4	1.973572856E-3	7.433567579E-4
6.2	2.027951575E-4	2.137955118E-3	1.411343051E-4
6.21	7.877408423E-4	2.487777256E-3	5.312524087E-4
6.22	5.459815360E-4	6.648861637E-4	-7.322504338E-5
6.23	7.683390269E-4	-4.578499844E-4	1.630389227E-4
6.24	-9.264480206E-5	-4.578499844E-4	1.769325811E-3
6.25	-8.008141322E-4	-4.514592836E-4	1.238678767E-3
6.26	-7.972048202E-4	-4.543146365E-4	5.312524087E-4
6.2700000000000005	-1.629564210E-4	-4.578499844E-4	1.172039356E-3
6.28	1.727951502E-4	-4.578499844E-4	1.511252234E-3
6.29	-4.692199547E-4	-4.578499844E-4	2.166642795E-3
6.3	-1.449896520E-3	1.845552060E-4	1.165869066E-3
6.3100000000000005	-4.341574429E-4	1.148419486E-3	1.201194065E-3
6.32	8.461668131E-4	1.431419590E-3	2.188444283E-3
6.33	-2.121206483E-4	3.433571327E-3	1.806810283E-3
6.34	5.581603520E-4	2.890311133E-3	1.511252234E-3
6.3500000000000005	1.108527833E-3	2.972711967E-3	8.121558335E-4
6.36	-9.874142118E-4	1.822249150E-3	1.943945669E-3
6.37	-1.789923211E-3	-1.550434624E-4	1.064058891E-3
6.38	-1.765138112E-3	-6.804943520E-4	2.701148436E-3
6.390000000000001	-3.158699828E-4	-6.778499366E-4	3.473822692E-3
6.4	-5.375448284E-4	-1.398189910E-3	2.735905296E-3
6.41	-7.696261051E-4	-8.875571426E-4	2.491252432E-3
6.42	-3.250938666E-5	-2.859589313E-3	2.491252432E-3
6.43	-5.567294621E-4	-2.757416980E-3	2.491252432E-3
6.44	-7.694037816E-4	-9.910451985E-4	2.491252432E-3
6.45	-3.327919804E-6	-5.499749478E-4	2.491252432E-3
6.46	-5.603089255E-4	-5.319519594E-4	4.057205461E-3
6.47	-1.527410977E-3	2.423562333E-4	2.880725067E-3
6.48	-9.154793864E-4	-3.533789544E-4	2.491252432E-3
6.49	-7.190323045E-4	-5.296774467E-4	3.300331491E-3
6.5	-2.292285795E-3	-5.196034748E-4	3.481252240E-3
6.51	-1.795156817E-3	-5.178499756E-4	1.842117885E-3
6.5200000000000005	8.071883612E-4	-5.178499756E-4	3.164960739E-3
6.53	-3.785507499E-4	-1.330820266E-3	2.651345058E-3
6.54	-6.772048378E-4	-3.903897548E-3	4.175566760E-3
6.55	-2.331814328E-3	-5.093448196E-3	2.772171627E-3
6.5600000000000005	-6.784534482E-5	-5.139622312E-3	3.353064024E-3
6.57	3.040292139E-4	-5.066488300E-3	2.622190363E-3
6.58	-5.458370130E-4	-4.987130625E-3	2.501252229E-3
6.59	-1.512939045E-3	-4.050804408E-3	2.501252229E-3
6.6000000000000005	-7.272646433E-4	-3.901892776E-3	1.611312057E-3
6.61	-6.272048296E-4	-1.224136604E-3	2.408532300E-3
6.62	-1.504396668E-3	-6.152068385E-5	2.501252229E-3
6.63	-2.453076141E-3	2.215001513E-5	2.501252229E-3
6.640000000000001	1.084806804E-3	2.215001513E-5	2.501252229E-3
6.65	-4.622796675E-4	1.279066188E-5	3.418469349E-3
6.66	3.183956572E-4	2.716686908E-6	2.556785046E-3
6.67	-5.494148609E-4	-9.200599388E-4	2.501252229E-3
6.68	3.323276284E-4	-9.582671169E-4	1.562137107E-3
6.69	-5.541170357E-4	-1.865451562E-3	3.413698048E-3
6.7	3.469513690E-4	-3.775893130E-3	1.574016784E-3
6.71	-5.684672020E-4	-2.817953853E-3	2.482124262E-3
6.72	-5.773244685E-4	-4.655356054E-3	3.469526799E-3
6.73	-5.772048214E-4	-2.696933765E-3	1.530199258E-3
6.74	-2.491623111E-3	-3.614931758E-3	2.504028870E-3
6.75	-5.370269918E-4	-2.577720829E-3	3.461198626E-3
6.76	-1.453179895E-3	-1.597497368E-3	1.521252403E-3
6.7700000000000005	3.944843050E-4	-1.529288810E-3	1.545783305E-3
6.78	-1.361128085E-3	3.614984489E-4	2.501252229E-3
6.79	2.266093205E-3	3.421500070E-4	2.540285654E-3
6.8	-5.012469649E-4	3.416762149E-4	3.388388940E-3
6.8100000000000005	3.702089739E-4	3.316022399E-4	1.574934122E-3
6.82	-4.768947083E-4	3.221500177E-4	2.440320350E-3
6.83	3.653089101E-4	3.214542830E-4	1.657616321E-3
6.84	-6.118790086E-4	3.121500114E-4	3.330364245E-3
6.8500000000000005	-1.423523054E-3	3.113047415E-4	1.521252403E-3
6.86	-6.945923009E-4	3.012309101E-4	1.521252403E-3
6.87	-2.348023453E-3	1.959440963E-4	1.521252403E-3
6.88	-1.343685233E-3	-6.767827260E-4	1.521252403E-3
6.890000000000001	-3.676502677E-4	-5.582953737E-4	1.521252403E-3
6.9	4.815799755E-4	2.909348371E-4	1.521252403E-3
6.91	4.702164465E-4	2.821500158E-4	1.521252403E-3
6.92	3.217829900E-4	2.821500158E-4	1.387510794E-3
6.93	-5.057661525E-4	4.202642927E-4	6.822438985E-4
6.94	-4.972048176E-4	1.385831157E-3	1.223302952E-3
6.95	-4.972048176E-4	2.341170779E-3	-1.364381506E-4
6.96	-6.566507096E-4	3.447720002E-3	1.521252403E-3
6.97	-1.285349244E-3	4.684966986E-3	1.521252403E-3
6.98	-1.180910632E-4	3.024914461E-3	1.521252403E-3
6.99	1.095385983E-3	2.620972422E-3	1.336605702E-3
7.0	-2.972662168E-4	8.322113586E-4	5.412522054E-4
7.01	8.653347127E-5	4.808579975E-5	3.400731962E-4
7.0200000000000005	-1.465098711E-3	-1.721408713E-4	-4.487477892E-4
7.03	-8.227037473E-4	-7.241691859E-4	1.944749703E-4
7.04	1.010761635E-3	4.215001608E-5	2.280235536E-3
7.05	-5.048764393E-4	3.749321384E-5	1.062557360E-3
7.0600000000000005	-4.972048176E-4	2.215001513E-5	-6.842995821E-4
7.07	-4.972048176E-4	1.967244668E-5	-1.185946100E-3
7.08	-2.497043923E-4	2.570988845E-4	-6.987998205E-4
7.09	2.181186256E-4	9.695244344E-4	-9.115182552E-4
7.1000000000000005	-4.945048846E-4	1.745131840E-3	5.412522054E-4
7.11	-2.207983777E-4	3.853824656E-3	2.665205480E-4
7.12	1.935884731E-4	3.820753588E-3	-4.487477892E-4
7.13	-2.236710543E-4	2.929856367E-3	-1.593679349E-4
7.140000000000001	1.750822431E-4	1.126865911E-3	2.445482727E-4
7.15	9.549631576E-5	1.488121993E-3	-1.447197381E-4
7.16	8.257202005E-4	4.938943534E-4	5.412522054E-4
7.17	-4.972048176E-4	-1.810704990E-4	5.412522054E-4
7.18	-4.972048176E-4	-8.236898124E-4	5.412522054E-4
7.19	-8.239480989E-4	-2.114481461E-3	5.412522054E-4
7.2	-1.129842903E-3	-2.434884361E-3	5.412522054E-4
7.21	-8.283003909E-4	-2.706204996E-3	1.931237465E-4
7.22	-1.101752244E-3	-1.702397349E-3	-4.487477892E-4
7.23	2.401377403E-4	-1.778857435E-3	-8.591403805E-5
7.24	1.092538571E-3	-2.271076649E-3	5.412522054E-4
7.25	4.727951645E-4	-6.602692777E-4	5.412522054E-4
7.26	4.689072258E-4	-4.249788918E-4	1.563474187E-4
7.2700000000000005	7.452815842E-5	-6.375067717E-4	-8.370148579E-4
7.28	-5.172048302E-4	-5.381409737E-5	-1.033230809E-3
7.29	-1.267672260E-4	-5.195985461E-5	-8.515150962E-4
7.3	8.386925064E-4	-5.784998867E-5	-1.018666040E-3
7.3100000000000005	5.723419128E-4	-4.709472525E-4	-4.487477892E-4
7.32	-5.472048258E-4	-2.288605618E-3	-4.487477892E-4
7.33	-5.427974665E-4	-3.920220456E-3	-4.487477892E-4
7.34	-1.025141265E-4	-3.010543127E-3	-8.879199499E-4
7.3500000000000005	8.655513253E-4	-3.234339771E-3	-5.359034363E-4
7.36	4.847091508E-4	-4.335660287E-3	5.312524087E-4
7.37	-1.013495732E-3	-3.773737808E-3	-3.907377019E-4
7.38	-1.058878009E-3	-3.279965349E-3	-1.428747987E-3
7.390000000000001	-5.423520083E-4	-3.218868230E-3	-9.531709729E-4
7.4	-1.015105063E-3	-2.259368740E-3	-9.315749219E-4
7.41	-1.022128467E-3	-2.827736112E-4	-1.428747987E-3
7.42	-4.495234795E-5	-2.901024814E-4	-4.340932422E-4
7.43	-7.178223171E-5	-2.684213377E-4	-4.779025731E-4
7.44	-1.555350258E-3	-3.045344860E-4	-9.168398233E-4
7.45	-1.952674593E-3	-2.539163774E-4	-4.487477892E-4
7.46	-9.607228096E-4	-8.400694114E-4	-4.487477892E-4
7.47	1.563478198E-5	-6.812781972E-4	-1.516211843E-3
7.48	-7.714662906E-5	-8.632537403E-4	-1.326783162E-3
7.49	3.543329384E-5	-2.259299693E-3	-9.969802587E-4
7.5	4.571260634E-4	-3.766313504E-3	-8.731779263E-4
7.51	-9.860420706E-5	-4.017731836E-3	-4.487477892E-4
7.5200000000000005	-1.071524057E-3	-3.564579072E-3	-4.487477892E-4
7.53	-8.998177217E-4	-2.958679409E-3	-4.487477892E-4
7.54	7.550099118E-5	-3.120555809E-3	-1.033385116E-3
7.55	-7.089001161E-4	-2.311995992E-3	-2.020634974E-3
7.5600000000000005	-8.718584668E-4	-3.477302966E-4	-1.210284177E-3
7.57	-1.087557443E-3	3.959608154E-4	-1.055289734E-3
7.58	-8.371497093E-4	1.607207424E-3	-1.428747987E-3
7.59	-4.672048220E-4	1.083728682E-3	-2.049789699E-3
7.6000000000000005	-4.607936884E-4	2.227793037E-3	-2.408747440E-3
7.61	-4.507196943E-4	2.617152319E-3	-1.773205499E-3
7.62	-4.406457144E-4	2.249031815E-3	-2.071540027E-3
7.63	1.996717164E-4	2.222247556E-3	-1.101823756E-3
7.640000000000001	1.160116120E-3	8.905475185E-4	-1.102903417E-3
7.65	1.501837501E-4	2.353673911E-4	-1.428747987E-3
7.66	-4.772048516E-4	2.252934096E-4	-1.428747987E-3
7.67	2.019924013E-4	2.221500130E-4	-1.428747987E-3
7.68	-8.560904817E-4	2.081408841E-4	-7.352957825E-4
7.69	-7.364287955E-4	1.950714699E-4	-4.387476200E-4
7.7	-1.141109079E-3	1.849963637E-4	-1.146959470E-3
7.71	-1.409976722E-3	1.821500162E-4	-7.131676448E-4
7.72	9.395223196E-6	1.748479542E-4	-4.387476200E-4
7.73	-1.826810201E-4	1.588350238E-3	2.841044835E-4
7.74	2.779974172E-4	2.792452212E-3	5.412522054E-4
7.75	1.245099585E-3	3.739406371E-3	5.412522054E-4
7.76	1.188026966E-6	3.197155434E-3	-9.555510499E-4
7.7700000000000005	1.765688678E-3	2.929130468E-3	-1.428747987E-3
7.78	9.165334593E-4	1.388140803E-3	-6.694907516E-4
7.79	-1.044576149E-3	9.265069989E-4	-1.215255117E-3
7.8	7.241431375E-5	1.562881777E-4	-6.549905119E-4
7.8100000000000005	-1.055311264E-3	-4.784998238E-5	3.402290779E-4
7.82	1.132233603E-4	-4.784998238E-5	-1.043306506E-3
7.83	-1.877866206E-3	-4.784998238E-5	-1.428747987E-3
7.84	-8.213807882E-4	-4.784998238E-5	-6.258358060E-4
7.8500000000000005	-4.589378751E-4	-4.784998238E-5	-4.404806884E-4
7.86	3.435255318E-4	-4.784998238E-5	-1.264501122E-3
7.87	5.027951601E-4	-3.943505457E-5	-2.253409932E-3
7.88	-3.206284115E-4	-4.633888438E-5	-7.449227569E-4
7.890000000000001	3.633949211E-4	7.741868912E-4	3.989777329E-4
7.9	-3.264744089E-4	7.424221760E-5	-3.052936629E-4
7.91	-4.572048390E-4	7.785422521E-4	-1.301277460E-3
7.92	-4.572048390E-4	8.845772158E-4	3.021730940E-4
7.930000000000001	4.022521002E-4	2.269306129E-5	-3.359255068E-4
7.94	4.949264075E-4	-8.784998428E-5	-4.487477892E-4
7.95	-3.811516906E-4	-9.685973018E-5	4.432185656E-4
7.96	-1.349259003E-3	-8.876608530E-5	-3.489695829E-4
7.97	-5.397327343E-4	-9.761641735E-4	-4.387476200E-4
7.98	-1.343463259E-3	-1.944108449E-3	4.659744011E-4
7.99	-5.052324815E-4	-1.999238166E-3	-3.707199746E-4
8.0	4.726377539E-4	-3.789395495E-3	4.804746339E-4
8.01	1.440360086E-3	-4.787053420E-3	-3.852202088E-4
8.02	-3.654149523E-4	-3.865862904E-3	-4.482770639E-4
8.03	-4.668081597E-4	-2.857516223E-3	-1.389875008E-3
8.040000000000001	4.714950348E-4	-1.850118126E-3	-1.428747987E-3
8.05	-4.430807878E-4	8.365324737E-5	4.922580271E-4
8.06	4.858473097E-4	-8.110768311E-4	-4.314504985E-4
8.07	-1.417661329E-3	1.323782572E-4	-1.418875484E-3
8.08	-1.427231533E-3	1.421500179E-4	-1.428747987E-3
8.09	-1.397996560E-3	1.375695046E-4	1.502694242E-3
8.1	5.426739167E-4	-8.277287393E-4	-2.384866675E-3
8.11	5.137096367E-4	-8.367387405E-4	-4.387476200E-4
8.120000000000001	-4.369340886E-4	-1.803840892E-3	-4.387476200E-4
8.13	-4.272048434E-4	-2.770598233E-3	-4.728748648E-4
8.14	-4.276235425E-4	-3.727207556E-3	-1.428747987E-3
8.15	-4.367120685E-4	-4.673183821E-3	-1.331674516E-3
8.16	-4.266366057E-4	-5.488753408E-3	4.855650918E-4
8.17	-4.794997975E-4	-4.504638769E-3	-4.387476200E-4
8.18	-1.248262522E-3	-4.245855297E-3	-3.685602736E-4
8.19	4.002907942E-4	-1.496269588E-3	4.638147842E-4
8.2	-1.124870312E-3	-1.477849975E-3	-5.242994051E-4
8.21	1.449919305E-3	-1.385912302E-3	-1.428747987E-3
8.22	6.509708335E-4	-4.006863772E-4	-1.428747987E-3
8.23	1.521708870E-3	4.610637400E-4	-1.428747987E-3
8.24	1.510471766E-3	4.509883497E-4	-1.314905679E-3
8.25	1.490323838E-3	4.409143651E-4	-5.698402542E-4
8.26	1.091696430E-3	4.321500171E-4	-1.428747987E-3
8.27	-1.170128245E-3	2.979198038E-4	-1.293133931E-3
8.28	2.111784911E-4	-6.808470277E-4	-5.917448695E-4
8.290000000000001	-1.435671705E-3	-1.516316775E-3	-1.126720554E-3
8.3	-1.425597662E-3	-1.506242811E-3	2.246504856E-4
8.31	-1.250776333E-3	-1.659235129E-3	-1.428747987E-3
8.32	-4.272048434E-4	-2.115610012E-3	-1.428747987E-3
8.33	-4.272048434E-4	-5.060206040E-4	-1.428747987E-3
8.34	-6.157690171E-5	-3.131316787E-4	-1.428747987E-3
8.35	1.299016778E-3	4.701726878E-4	-1.428747987E-3
8.36	5.107428960E-4	4.600977609E-4	-1.227627393E-3
8.370000000000001	5.006698389E-4	1.068491279E-3	-4.487477892E-4
8.38	2.793432112E-4	3.559000206E-3	-8.800526294E-4
8.39	-6.978676797E-4	3.837175152E-3	-1.737659526E-3
8.4	-7.609840437E-4	2.285099752E-3	5.412522054E-4
8.41	1.232851801E-3	2.022206664E-3	6.378914332E-5
8.42	2.455942735E-4	1.267156293E-3	-1.428747987E-3
8.43	-4.672048220E-4	1.000092658E-3	-1.176690628E-3
8.44	-2.131893732E-4	2.695040166E-4	-7.080552917E-4
8.45	4.900747321E-4	2.621500149E-4	-1.428747987E-3
8.46	2.144242858E-4	2.593544849E-4	-1.428747987E-3
8.47	-2.046442074E-4	-2.327968260E-5	-1.991083522E-3
8.48	4.727951645E-4	-4.253814186E-4	-3.100394256E-3
8.49	1.770828646E-4	2.491325419E-4	-2.113035309E-3
8.5	-2.104253583E-4	2.421500139E-4	-1.428747987E-3
8.51	4.496297232E-4	2.421500139E-4	-1.118535393E-3
8.52	-4.998744661E-4	8.673570206E-4	-1.083672940E-3
8.53	-1.496227014E-3	2.165522148E-3	-2.083983718E-3
8.540000000000001	1.374559092E-4	2.470711310E-3	-1.760864944E-3
8.55	-8.331091255E-4	3.421128373E-3	-2.069380384E-3
8.56	-1.117050528E-3	3.341841385E-3	-1.428747987E-3
8.57	-1.270034101E-4	2.401520409E-3	-1.074936144E-3
8.58	8.501314131E-4	2.637445906E-3	-8.097680133E-4
8.59	1.094427436E-3	2.000873444E-3	-1.060380194E-3
8.6	8.546386855E-4	1.230795955E-3	-8.244248666E-4
8.61	6.868711840E-4	2.215001513E-5	-1.428747987E-3
8.620000000000001	-1.249881745E-4	2.215001513E-5	-1.428747987E-3
8.63	5.932905109E-5	2.215001513E-5	-1.826270225E-3
8.64	-1.206929265E-4	2.215001513E-5	-2.003975097E-3
8.65	3.911753903E-5	-3.899375412E-4	-1.016660323E-3
8.66	-1.063374962E-4	-5.384228810E-4	-2.932063396E-5
8.67	-4.017185280E-4	1.779685409E-5	-3.219677825E-4
8.68	-1.488350911E-3	7.723070699E-6	-9.949065897E-4
8.69	-5.993517794E-4	2.150025820E-6	-8.899252970E-4
8.700000000000001	4.682193597E-4	2.150025820E-6	-1.428747987E-3
8.71	1.641704540E-5	-2.499749103E-6	-9.730702395E-4
8.72	4.144794464E-4	-3.126224678E-6	-1.374603178E-3
8.73	4.972370911E-4	2.150025820E-6	-1.468391823E-3
8.74	-5.123323568E-4	-2.722458860E-6	-4.487477892E-4
8.75	-9.870899336E-4	-4.877351015E-4	-4.487477892E-4
8.76	-1.467162300E-3	-1.464911209E-3	-1.432912625E-3
8.77	-9.527769655E-4	-2.431896884E-3	-1.909415096E-3
8.78	5.304530179E-4	-3.388925027E-3	-1.428747987E-3
8.790000000000001	4.402116259E-4	-3.821629716E-3	-3.956763134E-4
8.8	-9.978045734E-4	-4.287174470E-3	5.412522054E-4
8.81	-9.187174719E-4	-4.173184168E-3	-1.049602398E-3
8.82	-4.672048220E-4	-3.691449729E-3	-1.873010270E-3
8.83	-4.672048220E-4	-1.511440297E-3	-8.857602852E-4
8.84	6.164265653E-4	-3.068583268E-4	1.071045828E-4
8.85	3.535081558E-4	-1.760507905E-4	-2.192427198E-5
8.86	-4.872048346E-4	2.363873816E-4	-4.487477892E-4
8.870000000000001	-4.813673130E-4	2.379875452E-4	-1.020825990E-3
8.88	-4.772048516E-4	2.421500139E-4	-8.493554279E-4
8.89	-1.632531413E-3	2.361638652E-4	-4.427615394E-4
8.9	-6.376470139E-4	-3.496223816E-4	-4.387476200E-4
8.91	5.066610434E-4	-2.506741812E-3	1.623950592E-4
8.92	-7.017640405E-4	-3.603013632E-3	5.412522054E-4
8.93	-8.214075511E-4	-3.556431636E-3	5.412522054E-4
8.94	-4.508471937E-4	-4.135466651E-3	-7.112003378E-4
8.950000000000001	1.637978776E-4	-4.439260142E-3	-1.617211979E-4
8.96	-7.527832982E-4	-3.754279996E-3	5.412522054E-4
8.97	-7.824070316E-4	-2.733313496E-3	-1.035454455E-4
8.98	-1.731542080E-3	-2.374540747E-3	-4.387476200E-4
8.99	-1.058300304E-3	-1.048945482E-3	2.207045060E-4
9.0	-4.104017398E-4	2.452462152E-4	-7.989557689E-4
9.01	9.200689155E-4	5.521499996E-4	-7.479181897E-4
9.02	1.603899350E-4	5.451989643E-4	-4.387476200E-4
9.03	2.442228475E-4	1.209527643E-3	-4.387476200E-4
9.040000000000001	5.256961260E-4	7.893481518E-4	-1.141549742E-3
9.05	5.084469127E-4	4.949758912E-4	-7.256841938E-4
9.06	1.198655396E-3	4.921500083E-4	-1.869462186E-3
9.07	3.490275747E-5	4.848274786E-4	-2.486027774E-4
9.08	-1.204665876E-3	4.747535089E-4	-1.910018568E-4
9.09	-7.250971402E-4	-2.524871833E-4	2.908303961E-4
9.1	-4.621159075E-4	-1.222118859E-3	5.412522054E-4
9.11	2.665477321E-4	-7.112420249E-4	5.412522054E-4
9.120000000000001	4.927951305E-4	2.607394820E-4	-2.204181804E-4
9.13	-1.006425717E-3	4.821500021E-4	3.202825971E-4
9.14	8.413633308E-5	4.664660808E-4	-2.351023077E-4
9.15	1.270641843E-3	1.222080708E-3	-4.487477892E-4
9.16	-9.323041791E-5	1.406170116E-3	3.422549222E-4
9.17	2.869302283E-4	1.369894328E-3	-2.570745747E-4
9.18	1.254155327E-3	2.143510114E-3	-4.487477892E-4
9.19	6.196643143E-4	3.094213599E-3	-4.487477892E-4
9.200000000000001	-3.527974720E-4	1.621240168E-3	-4.487477892E-4
9.21	-1.328261011E-3	2.076483472E-3	-4.487477892E-4
9.22	-6.521017008E-4	1.388611503E-3	3.863553149E-4
9.23	-4.972048176E-4	3.897227675E-4	-3.011750322E-4
9.24	-1.321335847E-3	2.421500139E-4	-4.487477892E-4
9.25	-5.999735852E-4	2.334911122E-4	4.084834422E-4
9.26	3.624189929E-4	2.321500135E-4	1.397074867E-3
9.27	4.739882995E-4	2.321500135E-4	-1.076772514E-3
9.28	1.325356160E-3	2.321500135E-4	-5.584250853E-4
9.290000000000001	-3.133956220E-4	2.321500135E-4	-4.487477892E-4
9.3	3.405316879E-4	2.411788196E-4	4.360753523E-4
9.31	4.327951393E-4	1.990160163E-3	1.432570149E-3
9.32	-4.481869240E-4	1.244460315E-3	6.127396105E-4
9.33	-1.424668679E-3	1.143645547E-3	5.405044251E-4
9.34	-5.739008926E-4	2.932800043E-3	1.455230042E-3
9.35	-4.978045356E-4	3.945776702E-3	-1.251831686E-3
9.36	4.123244961E-4	2.116771489E-3	1.366160308E-3
9.370000000000001	4.627951349E-4	1.066724910E-3	5.853768995E-4
9.38	-4.707134735E-4	8.864139474E-5	5.412522054E-4
9.39	4.140843245E-4	6.184779778E-5	-4.188280679E-4
9.4	-1.452926643E-3	6.215001703E-5	5.186566301E-4
9.41	-5.323220970E-4	5.230428011E-5	5.412522054E-4
9.42	-5.172048302E-4	5.215002237E-5	-4.408004123E-4
9.43	-5.172048302E-4	-2.856475642E-3	5.407846860E-4
9.44	-5.004878186E-4	-1.881076185E-3	-4.351059875E-4
9.450000000000001	4.490514324E-4	-3.735910249E-3	1.535137791E-3
9.46	-5.280579874E-4	-8.176327584E-4	2.458677065E-3
9.47	-1.410702814E-3	-7.795990014E-4	5.124187174E-4
9.48	4.372197993E-4	1.617832603E-4	-4.124389109E-4
9.49	-4.972048176E-4	1.517092803E-4	4.544270706E-4
9.5	-4.966901005E-4	1.421500179E-4	-1.327348544E-3
9.51	-5.443085669E-4	1.421500179E-4	5.412522054E-4
9.52	-1.327982314E-3	1.414873384E-4	6.061948114E-4
9.53	3.513564400E-4	5.995735300E-5	1.521252403E-3
9.540000000000001	-1.347749438E-3	-1.003517523E-3	1.521252403E-3
9.55	-4.472048094E-4	-2.765191667E-3	1.521252403E-3
9.56	-4.481635659E-4	-2.828931468E-3	1.238420038E-3
9.57	-4.572048390E-4	-3.583399871E-3	-1.326366352E-3
9.58	-3.508235965E-4	-2.782014961E-3	-3.301501208E-4
9.59	5.016130374E-4	-3.499638132E-3	3.083747144E-4
9.6	4.915390331E-4	-2.735923244E-3	-1.305650207E-3
9.61	2.247188580E-4	-3.422160204E-3	-3.170490625E-4
9.620000000000001	-1.319452536E-3	-2.262345296E-3	6.790045187E-4
9.63	-6.207276013E-4	-5.763703533E-4	1.229768022E-3
9.64	-1.145806992E-3	-4.171510593E-4	-2.949416721E-4
9.65	3.365476882E-4	4.005224429E-4	5.412522054E-4
9.66	-4.655032661E-4	2.270988208E-4	5.412522054E-4
9.67	-4.572048390E-4	-4.073982074E-4	3.672493943E-4
9.68	-4.553550219E-4	2.045681011E-4	-2.574661167E-4
9.69	-2.623976018E-4	-9.513145348E-4	5.412522054E-4
9.700000000000001	1.249783606E-4	-2.317944322E-3	3.453447851E-4
9.71	-1.022962627E-3	-1.314692321E-3	-2.355900537E-4
9.72	3.166814788E-4	-1.158337944E-3	7.516599399E-4
9.73	-4.349834820E-4	-3.421185837E-3	1.085868168E-3
9.74	-4.272048434E-4	-3.388663783E-3	-2.136854467E-4
9.75	-1.996694328E-4	-3.118463601E-3	3.089765150E-4
9.76	2.957926412E-4	-2.105960797E-3	-4.387476200E-4
9.77	-4.372048264E-4	-8.692618266E-4	-1.919351220E-4
9.78	-1.883271073E-4	5.821500184E-4	-2.235282314E-4
9.790000000000001	2.641488214E-4	5.794835536E-4	-2.147434807E-3
9.8	8.452385515E-5	5.666682528E-4	-8.887966386E-4
9.81	9.436765258E-4	5.493340115E-4	2.652849596E-4
9.82	-4.572048390E-4	5.392600413E-4	-1.555302785E-4
9.83	-4.572048390E-4	5.291860540E-4	-4.264686685E-5
9.84	-1.686010245E-4	8.137917695E-4	-1.131030298E-3
9.85	1.971631221E-4	1.472814265E-3	-4.487477892E-4
9.86	-7.662367874E-4	1.136746231E-3	-4.455618387E-4
9.870000000000001	-7.947885541E-4	4.588901331E-4	-1.192796757E-4
9.88	8.361793813E-4	4.521500064E-4	2.112002466E-4
9.89	1.141957551E-3	4.487416285E-4	2.227023127E-4
9.9	1.483893238E-4	1.077441846E-4	1.179879722E-3
9.91	-4.772048516E-4	-1.763420180E-4	5.412522054E-4
9.92	-4.772048516E-4	4.385192221E-4	1.818045654E-4
9.93	-4.735004950E-4	4.358543564E-4	-4.487477892E-4
9.94	-4.596461829E-4	4.345913699E-4	2.957777663E-4
9.950000000000001	-8.171796201E-4	7.959787193E-4	1.143569707E-3
9.96	-6.450073971E-4	1.769319871E-3	1.562247086E-4
9.97	-2.397517233E-4	2.344144310E-3	-4.387476200E-4
9.98	-6.063028641E-4	1.928545310E-3	-8.423523862E-4
9.99	1.443188197E-4	2.143253449E-3	-1.428747987E-3
10.0	-1.156251650E-5	2.439738124E-3	-5.963360670E-4
10.01	1.299634053E-4	1.714981733E-3	-3.059130389E-4
10.02	4.314116272E-4	1.409159240E-3	-1.428747987E-3
10.03	1.513898539E-3	3.121500114E-4	-9.883668792E-4
10.040000000000001	1.822913646E-4	3.121500114E-4	-8.864528346E-4
10.05	-5.209352916E-4	3.121500114E-4	-9.737186753E-4
10.06	5.327951557E-4	3.168202492E-4	-4.387476200E-4
10.07	6.778887501E-5	3.221500177E-4	-4.387476200E-4
10.08	2.031289123E-5	3.269697856E-4	-1.388242308E-3
10.09	5.299503021E-5	3.272562638E-4	-1.929160086E-3
10.1	-4.322371028E-4	3.221500177E-4	-1.428747987E-3
10.11	-4.272048434E-4	3.221500177E-4	-9.296182322E-4
10.120000000000001	-4.220891346E-4	8.183722788E-4	-4.387476200E-4
10.13	-4.120143309E-4	1.795627685E-3	-4.387476200E-4
10.14	1.035223984E-4	2.251619564E-3	-9.600055104E-4
10.15	5.023099547E-5	1.713568193E-3	-1.951990284E-3
10.16	6.529541683E-4	7.162440916E-4	-8.118563313E-4
10.17	4.727966655E-4	2.621500149E-4	-5.397207235E-4
10.18	-4.072048308E-4	2.621500149E-4	-8.781936919E-4
10.19	1.394030884E-4	-8.254307326E-4	-9.966260227E-4
10.200000000000001	5.570851213E-4	-2.210301198E-3	-8.634564807E-4
10.21	5.527951217E-4	-3.167393480E-3	-4.387476200E-4
10.22	-5.779242148E-4	-3.538556655E-3	1.353999534E-4
10.23	-2.203418859E-4	-2.912721589E-3	-6.215433782E-4
10.24	-5.924874186E-4	-1.314547506E-3	-8.300997864E-4
10.25	-1.875699769E-4	-1.111586794E-3	-1.034645761E-3
10.26	5.727951343E-4	-2.877082501E-4	-8.155995467E-4
10.27	-2.524016346E-5	4.559204743E-4	1.717466531E-4
10.28	-3.809007290E-4	4.521500064E-4	-7.655031568E-5
10.290000000000001	-3.772048352E-4	4.521500064E-4	-1.063800509E-3
10.3	2.421938906E-4	4.521500064E-4	-1.418747818E-3
10.31	5.827951639E-4	4.521500064E-4	-7.791946894E-4
10.32	1.222998192E-3	-1.946530724E-4	-1.738953737E-3
10.33	-3.896481586E-4	-1.168656003E-3	-1.093760155E-3
10.34	-2.653121817E-3	-2.129058784E-3	-1.100205366E-3
10.35	-1.264258161E-3	-1.762318704E-3	-7.500399700E-4
10.36	-3.272048270E-4	-2.103115202E-3	-4.387476200E-4
10.370000000000001	-3.202333291E-4	-3.053171737E-3	-1.121955706E-3
10.38	-3.172048440E-4	-3.309667880E-3	-7.282895923E-4
10.39	-3.100853682E-4	-4.650549492E-3	-4.387476200E-4
10.4	-3.000102488E-4	-3.758933144E-3	-4.387476200E-4
10.41	1.098444537E-3	-2.463680206E-3	-1.151110463E-3
10.42	9.031823637E-4	-2.173163936E-3	-1.418747818E-3
10.43	6.353781644E-4	-1.426153063E-3	3.497807146E-5
10.44	6.253041889E-4	-4.337369388E-4	-1.928606936E-4
10.450000000000001	-1.110030865E-4	5.308183814E-4	-1.929038760E-3
10.46	-1.088179145E-3	7.545110942E-4	-1.652495553E-3
10.47	-5.536285135E-4	7.521500091E-4	-2.174610806E-3
10.48	-1.838095918E-3	4.492548850E-6	-1.635514020E-3
10.49	-7.261690655E-4	-1.999875527E-4	-6.482297861E-4
10.5	4.626267440E-4	-9.597451704E-4	-1.216515800E-3
10.51	-1.142125685E-4	-3.728318573E-4	-6.337295478E-4
10.52	-1.083304300E-3	-1.738133271E-3	-4.387476200E-4
10.53	3.155151587E-4	-5.006549004E-4	3.607705845E-4
10.540000000000001	-1.258666733E-4	-9.282781800E-4	-1.072538746E-3
10.55	5.086601400E-4	-2.836771052E-4	-1.418747818E-3
10.56	6.644132590E-4	-1.735550259E-3	2.240981172E-4
10.57	-1.405103988E-4	4.212576350E-4	-1.944766680E-3
10.58	1.359052040E-3	8.721499915E-4	-3.243200606E-3
10.59	7.996217763E-4	8.635461964E-4	-8.506237735E-4
10.6	-1.704038785E-4	2.537227271E-3	-4.387476200E-4
10.61	-2.972048314E-4	1.925568892E-3	-1.296575597E-3
10.620000000000001	5.502184340E-4	3.505823883E-3	-1.418747818E-3
10.63	-2.006315751E-4	2.842019297E-3	-5.464196023E-4
10.64	-2.982295443E-4	2.705224134E-3	-1.318325994E-3
10.65	-2.972048314E-4	9.194441793E-4	-1.418747818E-3
10.66	-2.880815763E-4	7.321499965E-4	-1.418747818E-3
10.67	5.957292034E-4	7.321499965E-4	-5.174191257E-4
10.68	6.635224532E-4	7.228773422E-4	-4.387476200E-4
10.69	-2.344943492E-4	7.221500135E-4	-1.354730851E-3
10.700000000000001	-2.972048314E-4	7.221500135E-4	-1.418747818E-3
10.71	-2.129687198E-3	7.316447247E-4	-1.418747818E-3
10.72	5.768680287E-4	7.225797981E-4	-4.808665967E-4
10.73	1.638288553E-3	7.221500135E-4	-2.329022747E-3
10.74	7.204072647E-4	7.221500135E-4	-1.446359906E-3
10.75	-2.570505851E-4	2.621841373E-3	-3.338023410E-3
10.76	6.896832795E-4	1.685395643E-3	-2.411859140E-3
10.77	-1.215660683E-3	2.606527429E-3	5.236668167E-4
10.78	-2.272048339E-4	3.562102817E-3	-1.420290153E-3
10.790000000000001	-2.187413580E-4	3.523245615E-3	-2.390107477E-3
10.8	7.169160291E-4	2.489900604E-3	-1.418747818E-3
10.81	-2.604978211E-4	5.521499996E-4	-1.395454832E-3
10.82	-1.186345279E-3	5.518382872E-4	-4.692954851E-4
10.83	-2.647591288E-4	5.421500165E-4	-1.456689251E-3
10.84	-1.197204793E-3	5.421500165E-4	-2.443790569E-3
10.85	-1.093668805E-3	5.421500165E-4	-3.274144114E-3
10.86	6.252269595E-4	4.830613508E-4	-1.418747818E-3
10.870000000000001	-1.054675292E-3	-4.271668449E-4	-1.418747818E-3
10.88	6.793426510E-4	-4.178499592E-4	-1.418747818E-3
10.89	-2.979745860E-4	-3.370802028E-4	-1.581952664E-3
10.9	-1.010406443E-3	5.521499996E-4	-3.289894936E-3
10.91	7.618146539E-4	5.521499996E-4	-2.398747271E-3
10.92	5.495572291E-4	5.521499996E-4	-2.295548795E-3
10.93	-1.066738833E-3	5.521499996E-4	-1.308281801E-3
10.94	-1.960022560E-4	5.521499996E-4	-7.923065681E-4
10.950000000000001	-6.465481947E-5	4.295999841E-4	-3.128541225E-3
10.96	6.417924436E-4	-4.064994291E-4	-1.286394565E-3
10.97	-3.353836941E-4	-5.346042706E-4	-2.991442655E-4
10.98	-1.018852875E-3	-1.210996449E-3	1.006918965E-4
10.99	-1.756321047E-4	-5.288323892E-4	-2.090491559E-3
11.0	-1.655570602E-4	-1.652576158E-3	-6.002302326E-4
11.01	1.142555964E-5	-3.242687647E-3	-1.756008562E-3
11.02	8.209991294E-4	-3.210666002E-3	-3.202739207E-3
11.03	8.127951457E-4	-3.170368902E-3	-2.215460219E-3
11.040000000000001	4.373654987E-4	-2.941381440E-3	-1.418747818E-3
11.05	-7.236437629E-4	-2.123813433E-3	-1.616537380E-3
11.06	8.327951117E-4	-1.697524014E-3	-2.193584460E-3
11.07	6.203820499E-4	-1.478499755E-4	-1.418747818E-3
11.08	6.797539611E-5	-1.456085132E-4	-1.199084611E-3
11.09	3.658444861E-4	8.909906453E-5	-8.926456227E-4
11.1	-1.114813843E-3	8.397590032E-4	-2.398747271E-3
11.11	-8.656370741E-4	3.539444255E-4	-2.157179630E-3
11.120000000000001	1.164968008E-4	-1.102772842E-3	-1.667526450E-3
11.13	1.336867937E-3	-1.082626417E-3	-2.398747271E-3
11.14	1.975527569E-3	-1.589112359E-3	-2.135429264E-3
11.15	9.788332471E-5	-3.267415362E-3	-1.689358498E-3
11.16	5.176590048E-4	-4.214476837E-3	-2.398747271E-3
11.17	3.903302364E-4	-4.590985408E-3	-2.683970093E-3
11.18	9.043297924E-4	-3.855912179E-3	-2.793801848E-3
11.19	-5.438756087E-4	-3.812557873E-3	-1.418747818E-3
11.200000000000001	7.996627894E-4	-3.765320300E-3	-1.418747818E-3
11.21	4.849846564E-4	-2.788767466E-3	-1.104524519E-3
11.22	1.510382321E-4	-4.596068902E-4	-1.081795364E-3
11.23	4.772733438E-4	5.176718314E-4	-2.727625049E-3
11.24	1.620632591E-4	1.158720141E-3	-3.378747469E-3
11.25	4.529210813E-4	1.148646145E-3	-3.035369450E-3
11.26	-1.807826730E-4	1.138572120E-3	-2.398747271E-3
11.27	-1.835530157E-4	1.132149969E-3	-2.040869285E-3
11.28	-1.734790402E-4	1.124698383E-3	-2.149004321E-3
11.290000000000001	1.976314379E-4	1.108349631E-3	-3.006310366E-3
11.3	4.207630415E-4	1.094399328E-3	-2.398747271E-3
11.31	-1.672048427E-4	6.951170560E-4	-2.398747271E-3
11.32	1.003574363E-3	1.021500189E-4	-2.398747271E-3
11.33	1.140759764E-3	1.062472963E-4	-2.398747271E-3
11.34	-7.584215661E-4	5.167620096E-4	-2.807530626E-3
11.35	-1.872048320E-4	1.082149961E-3	-2.546680820E-3
11.36	-6.062350308E-4	1.077830069E-3	-1.418747818E-3
11.370000000000001	-3.046186015E-4	1.920341377E-3	-1.418747818E-3
11.38	7.783263559E-4	2.993212370E-3	-1.856685583E-3
11.39	3.366924914E-4	2.091773686E-3	-3.289123696E-3
11.4	-1.872048320E-4	1.465354759E-3	-3.453870994E-3
11.41	2.631021100E-4	2.892145185E-3	-2.398747271E-3
11.42	7.727951205E-4	2.978743570E-3	-1.931809051E-3
11.43	1.701817630E-3	2.401822549E-3	-9.445591259E-4
11.44	2.201453676E-3	1.929120857E-3	-4.387476200E-4
11.450000000000001	1.203951997E-3	1.416004916E-3	-1.416433628E-3
11.46	-2.642047529E-4	1.406056819E-3	-1.902654338E-3
11.47	-2.207905063E-4	9.170138520E-4	-1.922090863E-3
11.48	2.225432702E-4	9.121500167E-4	-2.398747271E-3
11.49	-2.372048402E-4	9.068643090E-4	-2.398747271E-3
11.5	-2.318451640E-4	9.021499871E-4	-2.398747271E-3
11.51	-7.542692170E-4	9.021499871E-4	-1.866249509E-3
11.52	-6.574566392E-4	8.966423620E-4	-8.789995362E-4
11.53	3.242118432E-4	8.865683983E-4	-9.857460265E-4
11.540000000000001	2.098579456E-4	2.527928348E-3	-8.644992979E-4
11.55	3.424019545E-4	3.219642869E-3	-9.998046694E-4
11.56	1.900820437E-4	3.331658332E-3	-8.502334157E-4
11.57	-7.874787235E-4	3.692754357E-3	-4.387476200E-4
11.58	-5.978485873E-4	3.070887518E-3	-1.022150884E-3
11.59	-1.911777604E-4	2.053415488E-3	-2.374412952E-4
11.6	3.984964120E-4	1.646048915E-3	-6.545545745E-4
11.61	1.799917314E-4	1.036996501E-3	-1.418747818E-3
11.620000000000001	4.064517191E-4	6.621500222E-4	-8.063440745E-4
11.63	1.493678403E-4	6.558260106E-4	-4.387476200E-4
11.64	-1.442125343E-3	6.521499927E-4	8.153685961E-4
11.65	-8.685883512E-4	6.521499927E-4	8.869440424E-4
11.66	-1.706583272E-4	-6.113270955E-4	5.412522054E-4
11.67	-8.093927904E-4	-1.264608975E-3	1.190060806E-3
11.68	1.548289029E-4	3.418372852E-5	2.091352451E-4
11.69	1.362549179E-4	2.237821181E-5	8.878698087E-4
11.700000000000001	4.797725005E-4	-2.810064592E-4	1.521252403E-3
11.71	7.758771236E-4	3.931952139E-4	1.653260228E-4
11.72	7.658031597E-4	6.921500178E-4	-4.387476200E-4
11.73	-1.286331243E-3	6.850840437E-4	9.461792317E-4
11.74	-5.948398428E-5	6.821499883E-4	2.220965835E-3
11.75	8.736531718E-5	6.749349496E-4	1.794177368E-3
11.76	-8.842833576E-4	6.721500053E-4	2.235620304E-3
11.77	2.665776818E-4	-3.474126213E-5	3.222870407E-3
11.78	4.392689127E-5	-1.715836691E-3	3.481252240E-3
11.790000000000001	-1.996934246E-4	-2.162781455E-3	4.217370655E-3
11.8	-1.896194406E-4	-2.109922913E-3	3.717883744E-3
11.81	-1.872048320E-4	-2.802512339E-3	2.730633588E-3
11.82	-1.872048320E-4	-2.986916601E-3	2.501252229E-3
11.83	5.622993399E-4	-2.189309033E-3	1.736133485E-3
11.84	1.606966880E-5	-1.179594187E-3	3.066233482E-3
11.85	-9.510643979E-4	-1.801197531E-4	3.481252240E-3
11.86	4.188113074E-4	-7.568425929E-4	2.694228738E-3
11.870000000000001	7.946903440E-4	6.325923428E-4	1.706978789E-3
11.88	7.505488856E-6	9.939699166E-4	3.124552018E-3
11.89	-1.672048427E-4	9.838956660E-4	3.481252240E-3
11.9	1.431838124E-3	9.654932904E-4	2.665074039E-3
11.91	-6.922828226E-4	-6.510973078E-4	4.148108934E-3
11.92	-3.095737777E-4	-1.271715488E-4	3.630573815E-3
11.93	-9.780328322E-4	2.215001513E-5	3.481252240E-3
11.94	-2.634019054E-4	-1.642334498E-3	3.481252240E-3
11.950000000000001	6.991291897E-4	-1.873056873E-3	4.333681067E-3
11.96	-8.702459496E-4	-2.648578647E-3	5.320931078E-3
11.97	-2.401393509E-4	-2.713611889E-3	3.707121250E-3
11.98	-9.836946888E-4	-2.636475732E-3	5.229919038E-3
11.99	-1.964853264E-4	-2.537878201E-3	6.313977347E-3
12.0	-8.813496116E-5	1.386940739E-4	6.411252173E-3
12.01	7.814477637E-4	1.289946346E-3	3.732144714E-3
12.02	-3.146176726E-5	1.353711685E-3	4.384728322E-3
12.030000000000001	1.686392013E-3	1.324270272E-3	4.461252252E-3
12.040000000000001	8.860723219E-4	2.202669449E-3	4.461252252E-3
12.05	8.039127421E-4	3.121300004E-3	5.386490692E-3
12.06	-1.203235940E-4	1.278329032E-3	5.441252170E-3
12.07	7.439158380E-4	2.064498406E-3	6.371554394E-3
12.08	7.634656847E-4	1.126012725E-3	5.473773767E-3
12.09	-1.721206280E-4	1.082411257E-3	4.486859048E-3
12.1	7.350004589E-4	1.062524619E-3	5.422895538E-3
12.11	-1.964744028E-4	1.032485279E-3	5.441252170E-3
12.120000000000001	1.705541934E-3	1.012225541E-3	5.441252170E-3
12.13	-2.372048402E-4	9.821138333E-4	6.400644439E-3
12.14	-2.162698484E-4	9.719295933E-4	3.513536201E-3
12.15	1.626882836E-3	9.517816641E-4	6.375339910E-3
12.16	-2.872048251E-4	9.569319743E-4	4.435953966E-3
12.17	-3.190890202E-4	1.955254024E-3	3.513800691E-3
12.18	-1.207400016E-3	3.711727921E-3	4.421447466E-3
12.19	-2.209652616E-4	1.903665845E-3	3.528455139E-3
12.200000000000001	5.861116154E-4	3.706593517E-3	4.515705308E-3
12.21	-1.225315961E-3	3.546668900E-3	5.441252170E-3
12.22	-1.127547894E-3	2.567224797E-3	5.441252170E-3
12.23	-2.064271255E-4	2.424379191E-3	5.288821445E-3
12.24	-1.963516974E-4	1.418542245E-3	3.648467731E-3
12.25	-9.820117217E-5	5.212228819E-4	5.077820563E-3
12.26	7.717940203E-4	5.111488975E-4	1.717468358E-3
12.27	8.649119689E-4	5.021500146E-4	3.586593808E-3
12.280000000000001	1.488999442E-3	5.032976832E-4	4.348780539E-3
12.290000000000001	-2.372048402E-4	5.109269551E-4	3.481252240E-3
12.3	-3.604222200E-4	6.253673945E-4	3.735469149E-3
12.31	-1.051453819E-3	1.449407544E-3	5.306872409E-3
12.32	-1.972048383E-4	1.563766347E-3	4.602992925E-3
12.33	-5.136096487E-5	2.339111460E-3	4.994605306E-3
12.34	6.081264407E-4	2.317366343E-3	2.657515455E-3
12.35	-3.673811374E-4	2.125299643E-3	3.481252240E-3
12.36	-9.964413819E-4	1.624964461E-3	3.652015702E-3
12.370000000000001	1.652447837E-4	2.844250040E-3	3.927127594E-3
12.38	1.749011099E-3	1.046732069E-3	1.892088217E-3
12.39	1.349425027E-3	2.541160152E-4	3.481252240E-3
12.4	-2.172048276E-4	2.641899950E-4	3.081415956E-3
12.41	-1.218274915E-5	2.700363810E-4	1.728388078E-3
12.42	7.527951545E-4	-1.598856703E-4	2.501252229E-3
12.43	5.356504638E-4	-1.880470846E-3	2.501252229E-3
12.44	-2.095411037E-4	-2.598504845E-3	2.272297610E-3
12.450000000000001	-4.487049177E-4	-2.792115677E-3	1.993898382E-3
12.46	-9.311462355E-4	-2.762159582E-3	3.237679085E-3
12.47	-1.872048320E-4	-5.352905597E-4	2.501252229E-3
12.48	-1.872048320E-4	-2.724099838E-4	2.501252229E-3
12.49	-1.872048320E-4	4.394426223E-4	2.501252229E-3
12.5	-1.872048320E-4	4.293686519E-4	2.228678654E-3
12.51	8.695132574E-5	4.221500108E-4	2.080987873E-3
12.52	7.698642265E-4	4.221500108E-4	3.194024141E-3
12.530000000000001	4.743266708E-4	4.221500108E-4	2.795730466E-3
12.540000000000001	1.014446210E-4	1.265793997E-4	3.179523904E-3
12.55	7.696422843E-4	-2.320243588E-4	1.574316869E-3
12.56	1.072570077E-3	1.191482682E-4	1.937095263E-4
12.57	7.588088979E-4	-1.498534895E-3	1.521252403E-3
12.58	-8.663737825E-4	-3.106891306E-3	1.852083366E-3
12.59	-2.172048276E-4	-2.762084731E-3	1.825187890E-3
12.6	1.211298320E-4	-4.047470485E-3	8.866355906E-4
12.61	3.973583231E-4	-4.910823186E-3	1.168618913E-3
12.620000000000001	8.477566527E-4	-3.886949343E-3	5.412522054E-4
12.63	1.948527774E-3	-2.506090000E-3	5.412522054E-4
12.64	7.227951589E-4	-1.267849959E-3	5.412522054E-4
12.65	-3.280308206E-5	-8.861560178E-4	9.229462371E-4
12.66	-1.217204852E-3	9.324871857E-5	1.132214055E-3
12.67	-1.209117310E-3	6.721500053E-4	1.333829009E-3
12.68	-3.983632941E-4	6.680322724E-4	1.290636773E-3
12.69	1.555988914E-3	6.621500222E-4	-2.795906068E-5
12.700000000000001	1.432944563E-3	2.526426827E-4	1.232135370E-4
12.71	1.738106329E-4	-2.978499768E-4	4.119640758E-4
12.72	7.227951589E-4	-2.890194969E-4	6.558659063E-4
12.73	7.183059277E-4	-7.088148630E-4	-4.387476200E-4
12.74	2.656016665E-4	-1.233286726E-3	8.445779106E-6
12.75	-2.625676533E-4	-1.223212762E-3	8.680869353E-5
12.76	-2.524936771E-4	-1.208427646E-3	2.294601190E-5
12.77	-2.424189492E-4	-7.240464496E-4	1.479287481E-3
12.780000000000001	2.294219734E-4	2.587768355E-4	5.958593822E-4
12.790000000000001	2.490661879E-4	2.784210496E-4	-9.351493952E-4
12.8	-2.372048402E-4	2.729811488E-4	-4.387476200E-4
12.81	-1.223236619E-3	7.470673557E-4	5.935085168E-5
12.82	-1.161350795E-3	7.473066139E-4	5.412522054E-4
12.83	-2.019742358E-4	1.761655815E-3	1.053851105E-3
12.84	8.265792547E-4	2.156996493E-3	1.001403382E-3
12.85	2.243838913E-3	1.159588529E-3	1.407026006E-5
12.86	1.084738999E-3	7.021500009E-4	6.302592061E-4
12.870000000000001	2.890205888E-4	6.966219130E-4	4.377453313E-4
12.88	1.793935918E-4	6.921500178E-4	1.102559243E-4
12.89	2.976967885E-4	6.921500178E-4	-1.500146187E-5
12.9	1.550413151E-4	6.979000476E-4	-4.387476200E-4
12.91	-2.572048295E-4	7.021500009E-4	-1.580255423E-3
12.92	3.149913538E-4	7.021500009E-4	-1.820652456E-3
12.93	1.393337675E-4	6.961764550E-4	-2.479308273E-4
12.94	-2.472048465E-4	6.861024631E-4	-5.140630532E-5
12.950000000000001	3.404608272E-4	1.869724378E-3	-1.038656465E-3
12.96	7.127951293E-4	1.407832289E-3	-1.418747818E-3
12.97	1.321030339E-3	1.878620500E-3	-1.418747818E-3
12.98	1.060981782E-3	3.198583235E-3	-1.751211339E-4
12.99	8.656972548E-5	3.522892934E-3	-8.781114877E-5
13.0	3.661227335E-4	3.499163961E-3	-4.387476200E-4
13.01	6.579843151E-5	3.472448946E-3	-1.082311453E-3
13.02	3.703270545E-4	2.798054248E-3	-7.679338811E-4
13.030000000000001	4.144615789E-5	1.139307200E-3	2.193162027E-4
13.040000000000001	3.814239888E-4	1.809407591E-3	-7.895854406E-4
13.05	6.927951633E-4	1.086713150E-3	-1.418747818E-3
13.06	6.858566881E-4	4.721500190E-4	-7.387791275E-4
13.07	2.588946211E-6	4.721500190E-4	-1.125966410E-3
13.08	4.002856999E-4	4.721500190E-4	-7.241695919E-4
13.09	-1.191603186E-5	-2.153992043E-4	-1.140620928E-3
13.1	4.073372265E-4	2.139268894E-4	-1.418747818E-3
13.11	-4.342396318E-5	4.821500021E-4	-7.025285508E-4
13.120000000000001	4.016112653E-4	4.821500021E-4	2.848353745E-4
13.13	-7.791204936E-4	4.746921204E-4	-1.896213042E-4
13.14	-1.990264785E-3	4.646181395E-4	-1.914994823E-3
13.15	7.466847450E-4	4.697558734E-4	-9.079997830E-4
13.16	1.929068815E-4	4.798298424E-4	-1.191371741E-3
13.17	4.871616303E-4	4.743961977E-4	-6.588735509E-4
13.18	-5.662082052E-5	4.721500190E-4	-1.205992786E-3
13.19	5.073237161E-4	4.642466612E-4	-6.442190819E-4
13.200000000000001	7.048178089E-4	-3.036740266E-4	-2.002304795E-3
13.21	-8.511085250E-4	-2.051753559E-3	-8.206899221E-4
13.22	3.491024718E-4	-2.395348724E-3	3.575312016E-4
13.23	-8.253461116E-5	-1.559723073E-3	-1.065805914E-3
13.24	-1.051562531E-3	-2.172207679E-3	-1.418747818E-3
13.25	-1.208857291E-3	-2.321154881E-3	2.173617389E-4
13.26	-3.817955048E-4	-2.292582262E-3	-2.760384800E-3
13.27	1.412672357E-3	-1.438172561E-3	-2.546063487E-3
13.280000000000001	4.006885637E-5	-4.479160583E-4	-7.188797769E-4
13.290000000000001	1.448783860E-3	5.308213093E-4	-2.133382079E-3
13.3	3.618306521E-6	6.534297064E-4	-6.895707223E-4
13.31	6.058393952E-4	6.433557371E-4	-2.162424328E-3
13.32	1.592020486E-3	6.421500097E-4	-6.602966989E-4
13.33	8.263021058E-4	6.421500097E-4	-2.191733387E-3
13.34	-1.026380271E-3	-2.324376843E-4	-1.515143686E-3
13.35	-3.263658630E-4	-1.200508520E-3	-5.279086598E-4
13.36	1.531759163E-3	-2.158583609E-3	-4.387476200E-4
13.370000000000001	-1.086684838E-4	-4.002360288E-3	-4.387476200E-4
13.38	-2.478912433E-4	-4.110595378E-3	-1.351480802E-3
13.39	6.446258228E-4	-4.079686940E-3	-3.258734990E-3
13.4	-2.056683552E-4	-4.030534124E-3	3.308116143E-4
13.41	6.677605562E-4	-2.139776183E-3	-3.196752088E-3
13.42	-2.098749210E-4	-2.019016547E-3	-1.494963071E-3
13.43	-2.472048465E-4	-1.059167224E-3	-2.367746393E-3
13.44	-2.374457088E-4	8.751806396E-4	-2.398747271E-3
13.450000000000001	7.067775302E-4	-3.166550372E-5	-1.435099138E-3
13.46	1.674029323E-3	9.033842736E-4	-1.418747818E-3
13.47	-2.535409959E-4	9.121500167E-4	-1.418747818E-3
13.48	-2.471497538E-4	9.020948946E-4	-2.393348201E-3
13.49	-2.370757672E-4	8.920209314E-4	-1.406098673E-3
13.5	-2.467011034E-4	8.819469343E-4	-4.586500663E-4
13.51	-1.106129585E-3	8.718713829E-4	-1.418747818E-3
13.52	1.654392850E-3	8.617974181E-4	-1.453301554E-3
13.530000000000001	-1.762540514E-4	8.521499789E-4	-2.356943375E-3
13.540000000000001	6.456729628E-4	8.516493500E-4	-1.467809503E-3
13.55	-1.084864164E-3	7.862677337E-4	-2.398747271E-3
13.56	8.152035137E-4	-6.544162999E-5	-2.335038776E-3
13.57	1.571602053E-3	8.314259433E-4	-1.418747818E-3
13.58	-2.364067910E-4	8.229480343E-4	-1.418747818E-3
13.59	-1.426047115E-4	8.312778440E-4	-1.504220062E-3
13.6	6.499319093E-4	8.221499833E-4	-2.398747271E-3
13.61	-4.004279361E-5	9.222633658E-4	-2.398747271E-3
13.620000000000001	1.373991328E-3	1.905131304E-3	-2.184020397E-3
13.63	-9.914862100E-4	2.511753194E-3	-5.533612551E-4
13.64	7.127951293E-4	8.915266942E-4	-1.540611442E-3
13.65	7.114776433E-4	1.730832488E-3	-2.398747271E-3
13.66	7.027951463E-4	1.585786060E-3	-2.672866677E-3
13.67	7.013294682E-4	7.392186232E-4	-3.936372055E-3
13.68	6.927951633E-4	7.236910155E-4	-1.418747818E-3
13.69	5.345266226E-4	7.305350141E-4	-1.577016272E-3
13.700000000000001	-2.855158617E-4	7.221500135E-4	-2.398747271E-3
13.71	-2.754418942E-4	7.221500135E-4	-2.225978588E-3
13.72	-4.454148939E-4	7.221500135E-4	-1.598794996E-3
13.73	-1.047898824E-3	7.221500135E-4	-2.586141126E-3
13.74	-2.472048465E-4	7.201648056E-4	-2.989647943E-3
13.75	-2.451444009E-4	1.313799739E-3	-1.418747818E-3
13.76	-4.442440309E-4	3.211668395E-3	-1.418747818E-3
13.77	-9.886070035E-4	1.874123598E-3	-1.635137422E-3
13.780000000000001	4.068831807E-6	2.838861244E-3	-2.398747271E-3
13.790000000000001	5.218347804E-4	3.793683226E-3	-2.167787023E-3
13.8	-2.272048339E-4	4.030704911E-3	-1.657038575E-3
13.81	1.825805893E-5	2.524635761E-3	-2.398747271E-3
13.82	2.522976884E-4	1.996492739E-3	-2.651575943E-3
13.83	-1.184550950E-3	5.421500165E-4	-3.378747469E-3
13.84	-6.480028135E-4	5.421500165E-4	-3.111418558E-3
13.85	4.910180189E-4	5.421500165E-4	-2.673326279E-3
13.86	-4.832823142E-4	5.421500165E-4	-3.378747469E-3
13.870000000000001	-5.948559877E-4	2.559755817E-4	-3.378747469E-3
13.88	1.889040499E-4	-4.278499888E-4	-3.082263843E-3
13.89	-1.151006131E-3	-4.247506561E-4	-2.398747271E-3
13.9	-5.215838153E-4	-4.178499592E-4	-2.398747271E-3
13.91	7.995478831E-4	-1.028633191E-4	-2.716981274E-3
13.92	7.894738887E-4	5.554712674E-4	-3.378747469E-3
13.93	7.827951035E-4	5.587542224E-4	-2.713174441E-3
13.94	1.094596524E-4	5.521499996E-4	-2.439163414E-3
13.950000000000001	-8.098161394E-4	5.486052234E-4	-3.316581762E-3
13.96	1.738151906E-4	5.421500165E-4	-1.418747818E-3
13.97	4.345990275E-4	5.421500165E-4	-1.418747818E-3
13.98	-1.772048373E-4	1.767201798E-4	-1.787944764E-3
13.99	-5.460056273E-4	-4.240083024E-4	-2.398747271E-3
14.0	-3.776360780E-4	-1.177418701E-3	-2.398747271E-3
14.01	8.067853970E-4	-2.345879192E-3	-2.789790981E-3
14.02	2.433612481E-5	-2.315657190E-3	-2.582160131E-3
14.030000000000001	-1.123066623E-3	-2.690979093E-3	-1.824291458E-3
14.040000000000001	-7.001986778E-4	-2.822419330E-3	-2.811541330E-3
14.05	-1.272048408E-4	-1.809166028E-3	-3.378747469E-3
14.06	-1.272048408E-4	-8.104014545E-4	-2.523850666E-3
14.07	-5.485963170E-4	-2.534142592E-4	-1.418747818E-3
14.08	-6.352561106E-4	-6.852889925E-4	-1.860696284E-3
14.09	-9.720483934E-5	-3.240359837E-4	-2.398747271E-3
14.1	3.545864554E-4	2.850163551E-4	-2.855196311E-3
14.11	1.327030975E-3	-2.231183409E-4	-2.915048312E-3
14.120000000000001	8.957024112E-4	-2.130443660E-4	-2.869696549E-3
14.13	-1.123244844E-4	-6.812441531E-4	-2.422198521E-3
14.14	-1.072048398E-4	-1.167939663E-3	-1.418747818E-3
14.15	3.806198311E-4	-2.128470225E-3	-2.404455231E-3
14.16	1.352692888E-3	-2.572436742E-3	-2.378539821E-3
14.17	1.812440957E-3	-2.062318667E-3	-4.040397462E-4
14.18	1.282939886E-3	-2.032096776E-3	-4.879561067E-4
14.19	1.329405677E-3	-2.012524116E-3	-1.418747818E-3
14.200000000000001	1.771993903E-3	-1.991648137E-3	-1.948006163E-3
14.21	1.226286346E-3	-1.961426161E-3	-2.398747271E-3
14.22	2.445848232E-4	-1.392993938E-3	-1.311229712E-3
14.23	3.525590596E-4	-4.024635077E-4	-1.540765423E-3
14.24	7.727951205E-4	5.747126081E-4	-2.398747271E-3
14.25	7.612541353E-4	9.806089815E-4	-1.833238350E-3
14.26	-3.812131087E-4	9.721499613E-4	-2.564446705E-3
14.27	1.127530024E-3	9.662299334E-4	-3.378747469E-3
14.280000000000001	1.541973438E-3	9.561559696E-4	-2.203919978E-3
14.290000000000001	1.641992072E-4	9.460820060E-4	-2.013411444E-3
14.3	-2.172048276E-4	9.360080136E-4	-2.398747271E-3
14.31	-2.109888697E-4	9.259340321E-4	-2.398747271E-3
14.32	3.966295985E-4	9.158600683E-4	-2.398747271E-3
14.33	-4.820002605E-4	2.947522944E-4	-2.398747271E-3
14.34	-5.561360206E-4	5.667793411E-4	-2.398747271E-3
14.35	-8.390103069E-4	9.056365389E-4	-1.760428690E-3
14.36	-5.184609160E-4	9.021499871E-4	-7.731786481E-4
14.370000000000001	4.689529273E-4	8.954885783E-4	-1.744385734E-3
14.38	1.394612943E-4	8.921500041E-4	-1.738678364E-3
14.39	-1.635839299E-4	8.921500041E-4	-1.418747818E-3
14.4	-1.572048364E-4	1.546218960E-3	-2.093471228E-3
14.41	-1.500275875E-3	2.510206056E-3	-1.716773766E-3
14.42	-3.359860734E-5	3.456209488E-3	-4.029975472E-5
14.43	1.434279071E-4	2.332094804E-3	-1.552217915E-4
14.44	-8.337482480E-4	1.747788228E-3	-1.142472022E-3
14.450000000000001	3.077117692E-4	2.431468375E-3	-1.418747818E-3
14.46	1.317468053E-4	1.959110445E-3	-1.418747818E-3
14.47	1.301839694E-3	9.591167378E-4	-2.870005306E-3
14.48	-3.808850532E-4	6.946716568E-4	-3.378747469E-3
14.49	-1.109652510E-3	6.845976576E-4	-1.898489512E-3
14.5	3.799271942E-4	6.745236828E-4	-1.418747818E-3
14.51	1.035664012E-4	6.644497189E-4	-2.928006243E-3
14.52	-8.713099605E-4	6.699242890E-4	-1.854988864E-3
14.530000000000001	-3.179542001E-4	6.721500053E-4	-1.418747818E-3
14.540000000000001	-1.072048398E-4	6.721500053E-4	-1.418747818E-3
14.55	6.605836248E-4	1.439938423E-3	-1.418747818E-3
14.56	7.790452035E-5	1.607934666E-3	-1.418747818E-3
14.57	-9.905779862E-5	2.384265811E-3	-6.203376576E-4
14.58	-8.898481956E-5	1.748368029E-3	-1.244309683E-3
14.59	-8.720483886E-5	1.563854955E-3	-2.231659882E-3
14.6	-7.883556402E-5	2.365600290E-3	-1.578558833E-3
14.61	-7.720483839E-5	8.588286403E-4	-2.246186403E-3
14.620000000000001	7.405785498E-4	5.606685822E-4	-7.291064115E-4
14.63	4.942557547E-5	5.621500059E-4	-4.387476200E-4
14.64	-7.853827623E-5	-2.698399257E-4	-1.288070889E-3
14.65	-9.250578473E-4	-1.236962142E-3	-2.275341081E-3
14.66	-1.038390060E-3	-1.349035180E-3	-2.398747271E-3
14.67	-1.572221429E-4	-1.330072518E-3	-1.527653780E-3
14.68	8.043852275E-4	-1.309921769E-3	-1.418747818E-3
14.69	1.779367359E-3	-2.175385352E-3	-1.418747818E-3
14.700000000000001	1.050495659E-4	-4.727681092E-4	-2.311732206E-3
14.71	-1.849049323E-3	-2.886652269E-4	-1.498640754E-3
14.72	7.059972892E-4	6.011172597E-4	-2.326234717E-3
14.73	-8.880344420E-4	6.721500053E-4	-1.483998798E-3
14.74	-8.579762765E-5	6.627418676E-4	-1.418747818E-3
14.75	-2.720484110E-5	6.526663670E-4	-2.348142765E-3
14.76	8.903333466E-4	6.521499927E-4	-3.335401056E-3
14.77	9.231649897E-4	6.521499927E-4	-1.491237476E-3
14.780000000000001	-1.864852898E-5	-2.795880448E-4	-1.418747818E-3
14.790000000000001	-4.720483987E-5	-2.195021944E-3	-2.377000401E-3
14.8	-4.720483987E-5	-2.218142658E-3	-2.398747271E-3
14.81	-1.010333017E-3	-3.151190457E-3	-1.425690460E-3
14.82	9.227888498E-4	-3.117531886E-3	-2.398438804E-3
14.83	8.954652041E-4	-2.107698703E-3	-1.418747818E-3
14.84	-5.254719486E-5	-2.102205294E-3	-1.418747818E-3
14.85	8.591343960E-4	-3.037174763E-3	-1.440803253E-3
14.86	-1.036907241E-3	-2.978095345E-3	-2.398747271E-3
14.870000000000001	-9.548326016E-4	-1.970917796E-3	-2.398747271E-3
14.88	8.265042309E-4	-9.740337996E-4	-2.442563400E-3
14.89	-9.654686299E-4	-3.837256419E-5	-3.429961081E-3
14.9	-2.780131625E-5	1.000810758E-5	-4.241838510E-3
14.91	2.769602458E-5	8.572491334E-4	-2.333177359E-3
14.92	8.598311308E-4	-1.200694467E-4	-1.564675791E-3
14.93	-1.257818937E-4	-9.368173350E-4	-3.378747469E-3
14.94	-9.188341947E-4	-1.144353445E-4	-3.291269442E-3
14.950000000000001	-1.720484136E-5	-1.089799950E-3	-2.303893639E-3
14.96	-1.720484136E-5	-1.742848254E-3	-1.520728289E-3
14.97	-1.254576715E-4	-8.610281763E-5	-2.398747271E-3
14.98	-8.717758475E-4	-1.062088897E-3	-2.398747271E-3
14.99	2.292693563E-4	-1.782716938E-3	-2.274878258E-3
15.0	1.800338074E-3	-7.867308301E-4	-1.549866908E-3
15.01	8.072496647E-4	1.991073929E-4	-2.122008686E-3
15.02	2.696213385E-4	1.032149953E-3	-5.843899667E-4
15.030000000000001	1.606747512E-3	1.032149953E-3	-1.571771508E-3
15.040000000000001	1.081627461E-4	1.032149953E-3	-2.398747271E-3
15.05	9.010857373E-4	1.196255100E-3	-2.063699305E-3
15.06	7.180209503E-4	1.988583091E-3	-6.135218183E-4
15.07	9.296201286E-5	1.970292552E-3	-1.782796252E-3
15.08	8.808634476E-4	1.958286611E-3	-3.000139125E-3
15.09	6.781232940E-4	1.743464291E-3	-1.615426482E-3
15.1	-9.720483934E-5	9.500690920E-4	-2.398747271E-3
15.11	-7.241785355E-4	9.421500123E-4	-2.398747271E-3
15.120000000000001	-2.350049427E-3	7.305237066E-4	-2.398747271E-3
15.13	-2.805812268E-4	2.132235597E-4	-2.173068152E-3
15.14	-3.331704805E-4	9.497731693E-4	-1.418747818E-3
15.15	1.414811689E-3	9.396988080E-4	-1.418747818E-3
15.16	-5.720484035E-5	9.296236211E-4	-1.171163912E-3
15.17	-5.460449380E-5	9.195496577E-4	-9.484154282E-4
15.18	2.095305967E-4	9.094756813E-4	-1.874579182E-3
15.19	9.100468587E-4	1.429825127E-3	-4.387476200E-4
15.200000000000001	8.999724241E-4	3.090309633E-3	-4.387476200E-4
15.21	3.335112634E-4	3.479467639E-3	-1.006724922E-3
15.22	-4.606708457E-4	3.041501371E-3	-2.107508634E-3
15.23	6.073520422E-4	3.099080369E-3	-1.120258820E-3
15.24	-6.408505259E-5	1.719030210E-3	-4.387476200E-4
15.25	-5.720484035E-5	2.015557840E-3	-7.517368557E-4
15.26	-6.911478881E-4	2.335375154E-3	-1.418747818E-3
15.27	-6.939306914E-4	1.331318865E-3	-1.091258344E-3
15.280000000000001	1.568002900E-3	6.721500053E-4	-1.108331883E-3
15.290000000000001	9.193038869E-4	6.721500053E-4	-2.398747271E-3
15.3	5.669663874E-4	6.721500053E-4	-2.049353447E-3
15.31	-5.720484035E-5	6.721500053E-4	-7.054595632E-4
15.32	3.029762081E-4	6.721500053E-4	-1.865363117E-4
15.33	9.090079812E-4	1.035719973E-3	-1.418747818E-3
15.34	5.282028692E-4	1.253695892E-3	-1.418747818E-3
15.35	-6.720483791E-5	6.521499927E-4	-1.418747818E-3
15.36	3.218334381E-4	6.521499927E-4	-1.418747818E-3
15.370000000000001	5.065807563E-4	6.521499927E-4	-1.819046695E-3
15.38	-6.304617352E-5	6.479913343E-4	-1.583648996E-3
15.39	3.491292112E-4	6.421500097E-4	-4.387476200E-4
15.4	8.941818996E-4	6.421500097E-4	-8.607971519E-4
15.41	4.622567827E-4	6.465306101E-4	-1.418747818E-3
15.42	3.460476695E-4	-2.121761671E-4	-9.821293418E-4
15.43	4.333712313E-4	-1.278789653E-3	-8.827017694E-4
15.44	-5.484090081E-4	-1.258641726E-3	-1.418747818E-3
15.450000000000001	-6.140724219E-4	-1.692269916E-3	-1.418747818E-3
15.46	8.299477406E-4	-2.178841558E-3	-4.873389717E-4
15.47	9.017121626E-4	-2.148197820E-3	-1.350565771E-3
15.48	-5.776834714E-4	-2.128048349E-3	-2.418187088E-3
15.49	-1.019379929E-4	-1.615314143E-3	-1.418747818E-3
15.5	3.880351688E-4	-1.282308424E-4	-9.238885713E-4
15.51	-8.720483886E-5	8.270264338E-4	-9.408569851E-4
15.52	4.117594425E-4	8.221499833E-4	-9.093883315E-4
15.530000000000001	3.667287015E-4	3.108120313E-4	-4.387476200E-4
15.540000000000001	-8.720483886E-5	3.706641164E-4	-1.486466674E-3
15.55	-8.178449805E-5	2.963769719E-4	-2.398747271E-3
15.56	-7.720483839E-5	3.851690700E-4	-1.321719242E-3
15.57	-7.163581533E-5	-2.582403920E-4	1.070165162E-4
15.58	4.745234671E-4	-1.112206940E-3	-1.117790535E-3
15.59	8.927951029E-4	-2.760058349E-3	-1.278218530E-3
15.6	8.927951029E-4	-3.407171491E-3	-4.387476200E-4
15.610000000000001	3.238058426E-4	-2.960252348E-3	-1.588457743E-3
15.620000000000001	-6.534334344E-4	-3.506256915E-3	-2.398747271E-3
15.63	1.256190649E-4	-3.863791907E-3	-2.398747271E-3
15.64	-2.844550233E-4	-2.642334302E-3	-2.398747271E-3
15.65	1.483090846E-4	-1.855525006E-3	-1.190908632E-3
15.66	-3.110240967E-4	-1.224109365E-3	-1.050013486E-3
15.67	-1.030892817E-3	3.766739588E-4	-2.037321406E-3
15.68	-1.014432905E-3	1.085764029E-3	-1.772923582E-3
15.69	-1.000744906E-3	1.075690031E-3	-1.418747818E-3
15.700000000000001	-3.568805720E-4	1.065616068E-3	-2.699396136E-3
15.71	6.171537299E-4	1.055542104E-3	-2.731172931E-3
15.72	9.361132397E-4	1.045468140E-3	-1.089098487E-3
15.73	2.229920959E-3	3.868312450E-4	-4.387476200E-4
15.74	1.507103902E-3	7.898093957E-5	-1.108177905E-3
15.75	-4.568522962E-4	7.450683466E-4	-1.418747818E-3
15.76	3.037742525E-4	-3.118496997E-4	-1.418747818E-3
15.77	-4.755568603E-4	-2.066206133E-4	-2.109976787E-3
15.780000000000001	-1.731537321E-3	7.736109707E-4	-2.398747271E-3
15.790000000000001	9.570986827E-5	1.044948261E-3	-9.872020391E-4
15.8	9.055187261E-4	1.034873525E-3	-1.151839703E-3
15.81	-5.232712917E-4	1.032149953E-3	-2.139131522E-3
15.82	-1.029779959E-3	1.752359267E-3	-2.398747271E-3
15.83	-2.923204868E-4	1.994651081E-3	-1.663863337E-3
15.84	-3.963204024E-5	1.977004330E-3	-1.418747818E-3
15.85	1.438623916E-3	1.215118652E-3	-1.418747818E-3
15.860000000000001	1.136160471E-3	9.744292167E-4	-1.418747818E-3
15.870000000000001	1.661208223E-3	2.476772185E-3	-2.182752429E-3
15.88	-4.253318513E-4	1.351701309E-3	-1.627458508E-3
15.89	5.019294583E-4	1.702745047E-3	-2.975826106E-3
15.9	8.947768585E-4	1.108342335E-3	-3.378747469E-3
15.91	1.669772518E-3	9.040564784E-4	-2.585582901E-3
15.92	2.682429608E-4	8.939822061E-4	-1.598303824E-3
15.93	7.040056328E-4	8.839082421E-4	-2.226441410E-3
15.94	8.644807029E-4	8.821500211E-4	-1.583931812E-3
15.950000000000001	8.627951539E-4	8.737605121E-4	-1.418747818E-3
15.96	1.675312121E-3	8.636862878E-4	-1.418747818E-3
15.97	9.861005928E-4	8.536122841E-4	-3.092136554E-3
15.98	8.427950947E-4	1.687614473E-3	-1.690592759E-3
15.99	-8.335772690E-4	2.655993182E-3	-2.269962375E-3
16.0	-2.198637888E-4	1.914808990E-3	-2.398747271E-3
16.01	-9.720483934E-5	3.479672266E-3	-6.670491576E-4
16.02	7.491670052E-4	2.802323096E-3	-4.387476200E-4
16.03	8.438119448E-4	9.224679640E-4	-2.199446199E-3
16.04	1.721337501E-3	7.040357244E-4	-1.511148162E-3
16.05	3.194650305E-5	6.930174592E-4	-1.418747818E-3
16.06	1.639403605E-3	6.921500178E-4	-2.320859419E-3
16.07	8.833020174E-4	6.828694483E-4	-4.217733883E-3
16.080000000000002	-1.002004134E-3	6.821499883E-4	-2.525238711E-3
16.09	7.019468218E-4	6.727213874E-4	-2.398747271E-3
16.1	8.032910681E-4	-2.402429893E-4	-2.398747271E-3
16.11	-1.064650588E-3	6.506612408E-4	-3.337258684E-3
16.12	-2.013011389E-4	6.921500178E-4	-2.432843576E-3
16.13	-1.574787229E-4	6.921500178E-4	-1.445588664E-3
16.14	-1.107814028E-3	6.823498939E-4	-2.379156585E-3
16.15	7.982398024E-4	6.821499883E-4	-2.398747271E-3
16.16	-1.421663260E-4	6.821499883E-4	-1.423838274E-3
16.17	8.182152388E-4	6.721500053E-4	-2.401060824E-3
16.18	-1.098574385E-3	6.720539722E-4	-3.359924955E-3
16.19	8.063267146E-4	6.623215679E-4	-1.452370825E-3
16.2	-1.369608174E-4	6.484802465E-4	-3.378747469E-3
16.21	-9.652952394E-5	-2.975304428E-4	-3.347433075E-3
16.22	7.950117383E-4	-3.642038985E-4	-2.398747271E-3
16.23	-1.272048408E-4	-2.180950410E-3	-2.398747271E-3
16.240000000000002	-1.266632787E-4	-1.279298295E-3	-2.398747271E-3
16.25	-1.770568733E-4	-2.236467886E-3	-2.398747271E-3
16.26	-1.018794550E-3	-3.192114143E-3	-2.331028075E-3
16.27	-1.706441634E-4	-3.980585748E-3	-1.343778493E-3
16.28	-9.749853746E-4	-2.799513395E-3	-5.209671057E-4
16.29	-1.648622642E-4	-2.649910411E-4	-1.508231395E-3
16.3	-1.035227770E-3	-1.833113618E-3	-2.204999460E-3
16.31	-8.121763952E-4	-5.784998867E-5	-7.510706981E-4
16.32	9.116600879E-4	5.225239077E-5	-3.267509991E-3
16.330000000000002	7.853997866E-4	6.773592346E-4	-2.398747271E-3
16.34	1.817089817E-4	-9.008269569E-4	-2.398747271E-3
16.35	1.609262847E-3	-1.709745189E-4	-2.398747271E-3
16.36	-2.061470694E-4	-1.153927364E-3	-2.258372716E-3
16.37	-7.434615961E-4	-1.963330769E-3	-1.566372522E-3
16.38	1.064509313E-3	-1.781394713E-3	-2.243872487E-3
16.39	1.871140520E-3	-1.108345904E-3	-1.743048866E-3
16.4	1.359396617E-3	-2.248259294E-3	-3.039688735E-3
16.41	-8.722292462E-4	-3.645658801E-3	-1.241968299E-3
16.42	-2.574787540E-4	-2.446034964E-3	-8.068068192E-4
16.43	-6.565971892E-4	-1.023274175E-3	-2.398747271E-3
16.44	7.183169238E-4	-1.390790267E-3	-2.398747271E-3
16.45	-4.720483987E-5	3.758622195E-4	-2.604559655E-3
16.46	-2.582138181E-4	1.142149952E-3	-3.378747469E-3
16.47	-5.808345326E-4	1.139900624E-3	-2.937878590E-3
16.48	4.720726374E-4	1.129826661E-3	-1.418747818E-3
16.490000000000002	-7.822701102E-4	1.119752697E-3	-1.653682401E-3
16.5	-3.720484085E-5	1.109678345E-3	-2.398747271E-3
16.51	-3.720484085E-5	1.099603196E-3	-2.398747271E-3
16.52	7.228298831E-4	1.092150037E-3	-2.655586647E-3
16.53	2.331921478E-3	1.089455226E-3	-2.586479250E-3
16.54	8.927951029E-4	1.082149961E-3	-9.814266439E-4
16.55	8.899523561E-4	8.035603205E-4	-2.120157769E-3
16.56	5.998275138E-4	3.822004380E-4	-1.704632468E-3
16.57	-3.744644418E-4	1.056165430E-3	-2.105503263E-3
16.580000000000002	-4.492825773E-4	1.039083737E-3	-1.719241920E-3
16.59	5.981910162E-4	1.032149953E-3	-2.091003036E-3
16.6	-6.399060903E-5	1.028935728E-3	-1.733742149E-3
16.61	5.774197969E-4	1.018861764E-3	-2.076502809E-3
16.62	1.539938182E-3	1.338282517E-3	-1.748242377E-3
16.63	8.827951199E-4	1.975276507E-3	-1.725151574E-3
16.64	8.792833988E-4	1.958638235E-3	-1.815344648E-3
16.65	5.321529123E-4	2.292792229E-3	-4.007348239E-3
16.66	-7.871844223E-4	2.891170920E-3	-2.661448620E-3
16.67	-9.232397011E-4	2.860948911E-3	-1.418747818E-3
16.68	5.434530878E-4	2.095850531E-3	-2.165047132E-3
16.69	3.154903813E-4	8.743855325E-4	-2.617828209E-3
16.7	9.067523581E-4	8.621500085E-4	-2.194356093E-3
16.71	9.087640022E-4	8.661811683E-4	-2.983693054E-3
16.72	8.986900004E-4	8.680448511E-4	-2.398747271E-3
16.73	1.289812314E-3	8.621500085E-4	-1.989192929E-3
16.740000000000002	1.425990480E-3	8.621500085E-4	-1.835552265E-3
16.75	4.430674412E-4	1.286204799E-3	-2.822802162E-3
16.76	-1.072048398E-4	1.410777193E-3	-2.947374585E-3
16.77	-1.072048398E-4	1.291906050E-3	-2.398747271E-3
16.78	3.342039672E-4	1.822150007E-3	-3.290666283E-3
16.79	4.188348010E-4	2.266110299E-3	-4.358747666E-3
16.8	-9.250627124E-5	2.316991737E-3	-3.898287922E-3
16.81	-5.501420597E-4	1.319667723E-3	-2.911037607E-3
16.82	-1.119827943E-4	1.272337355E-3	-2.873782051E-3
16.830000000000002	-6.193900293E-5	1.289861575E-3	-2.896458999E-3
16.84	-7.812102823E-5	7.871547186E-4	-2.398747271E-3
16.85	-9.079378271E-5	7.821500047E-4	-2.398747271E-3
16.86	-5.379462068E-4	7.770059867E-4	-2.398747271E-3
16.87	-5.720484035E-5	2.712213039E-4	-2.398747271E-3
16.88	4.561180264E-4	3.201808993E-4	-2.398747271E-3
16.89	9.074283571E-4	-2.690118956E-4	-1.872799782E-3
16.9	1.430539921E-3	-6.346645171E-4	-2.485118517E-3
16.91	1.326830017E-3	3.415707254E-4	-2.838297058E-3
16.92	8.827951199E-4	2.299699247E-4	-1.850977997E-3
16.93	3.277754393E-4	-1.921865137E-4	-1.973767212E-3
16.94	-6.479997628E-4	3.686823801E-4	-2.398747271E-3
16.95	-4.876849003E-4	7.763385866E-4	-2.398747271E-3
16.96	4.937696721E-4	7.721500216E-4	-2.975608268E-3
16.97	8.927951029E-4	7.661890405E-4	-3.378747469E-3
16.98	3.013705844E-4	7.621499921E-4	-3.378747469E-3
16.990000000000002	-6.797705781E-4	7.560410773E-4	-3.378747469E-3
17.0	7.482037002E-4	1.585910456E-4	-3.378747469E-3
17.01	2.952735459E-5	-1.421685978E-3	-2.765572448E-3
17.02	-1.674968089E-3	-2.128857383E-3	-3.019172423E-3
17.03	-7.780627165E-4	-2.726406453E-3	-2.750973363E-3
17.04	5.513942278E-4	-3.048408771E-3	-2.398747271E-3
17.05	-3.787553862E-4	-2.375857165E-3	-2.398747271E-3
17.06	2.453262863E-4	-2.657544662E-3	-2.398747271E-3
17.07	2.526676361E-4	-2.307615356E-3	-1.741917760E-3
17.080000000000002	5.900988254E-4	-1.300217318E-3	-1.418747818E-3
17.09	1.560528144E-3	-9.641471745E-4	-2.090183211E-3
17.1	5.191778960E-4	-2.721896101E-4	-3.756216525E-3
17.11	5.947800360E-4	3.215002142E-5	-3.672762939E-3
17.12	8.827951199E-4	7.112371004E-4	-3.378747469E-3
17.13	1.894581293E-4	9.850022283E-4	-4.079232434E-3
17.14	-9.442776112E-5	-1.119720234E-3	-2.943054685E-3
17.150000000000002	-9.720483934E-5	-1.205413279E-3	-1.683608330E-3
17.16	-9.720483934E-5	-9.304798121E-4	-1.418747818E-3
17.17	-8.231503913E-5	-1.908049065E-4	-2.148347586E-3
17.18	6.446462362E-4	6.215001703E-5	-3.135637090E-3
17.19	1.461326827E-4	-1.403580376E-3	-3.378747469E-3
17.2	-8.720483886E-5	-1.116305743E-3	-2.627203127E-3
17.21	6.561038263E-4	-8.723643811E-4	-2.398747271E-3
17.22	2.381433564E-3	-8.600332198E-4	-3.164791852E-3
17.23	4.986931058E-4	-7.666470963E-5	-3.378747469E-3
17.240000000000002	-8.977494520E-4	8.888004117E-4	-2.598202647E-3
17.25	-3.094100707E-4	1.082149961E-3	-1.610952958E-3
17.26	6.697273675E-4	1.074037271E-3	-3.803882397E-3
17.27	5.868686235E-5	1.858071636E-3	-2.754157367E-3
17.28	6.759437216E-4	1.222477470E-3	-4.018092686E-3
17.29	1.643072130E-3	1.035477523E-3	-3.541797988E-3
17.3	1.785974676E-3	1.847939297E-3	-2.554547704E-3
17.31	1.281194531E-4	1.162083851E-3	-2.398747271E-3
17.32	1.493383889E-3	1.012149986E-3	-2.398747271E-3
17.330000000000002	1.755527695E-3	1.012149986E-3	-7.065391533E-4
17.34	-7.898525429E-4	9.947346209E-4	-2.998810579E-3
17.35	5.364406586E-4	9.921500205E-4	-1.657538886E-3
17.36	7.639394763E-4	9.832943763E-4	-2.286601934E-3
17.37	7.627951375E-4	1.159749816E-4	-2.398747271E-3
17.38	7.627951375E-4	8.766335944E-4	-1.516254061E-3
17.39	7.537174066E-4	9.630722304E-4	-2.308366459E-3
17.400000000000002	-1.022891211E-3	9.621499783E-4	-1.501751550E-3
17.41	-2.737182482E-4	9.621499783E-4	-3.227266397E-3
17.42	-1.090112064E-3	1.864358414E-3	-1.555728740E-3
17.43	-1.147829685E-3	4.650928595E-3	-3.256266865E-3
17.44	-2.211950776E-4	2.951783188E-3	-2.452737520E-3
17.45	1.680559585E-3	2.823100865E-3	-3.332154260E-3
17.46	-9.893482557E-5	4.645886836E-3	-5.567547124E-4
17.47	-1.772048373E-4	1.849389034E-3	-3.282490592E-3
17.48	-1.112876186E-3	1.742403380E-3	-1.468418734E-3
17.490000000000002	-1.747902276E-4	7.797353833E-4	-3.343576691E-3
17.5	-1.572048364E-4	7.423609026E-4	-1.439418266E-3
17.51	-1.472425953E-4	7.321877501E-4	-4.424474789E-4
17.52	-1.103039842E-3	7.321074964E-4	-1.422912826E-3
17.53	-1.382722208E-4	7.220335144E-4	-2.387330400E-3
17.54	-1.058388317E-3	7.121499839E-4	-1.437564301E-3
17.55	-1.228597509E-4	7.118855007E-4	-2.398747271E-3
17.56	-1.001245436E-3	7.018100046E-4	-2.398747271E-3
17.57	8.727951369E-4	6.917360385E-4	-2.398747271E-3
17.580000000000002	8.727951369E-4	6.816619538E-4	-2.446574736E-3
17.59	7.640370654E-4	6.715864929E-4	-3.213074558E-3
17.6	-9.940928815E-4	6.621500222E-4	-5.012221003E-4
17.61	-6.720483791E-5	6.621500222E-4	-1.488472322E-3
17.62	-6.720483791E-5	6.613645638E-4	-2.321772611E-3
17.63	-1.505701768E-4	6.521499927E-4	-1.502972551E-3
17.64	-1.036271369E-3	5.625418941E-4	-2.398747271E-3
17.650000000000002	-8.317388107E-4	-3.068424048E-4	-2.300006772E-3
17.66	8.066657690E-4	-4.028964149E-4	-1.524877152E-3
17.67	4.386083628E-5	-1.043404733E-3	-2.398747271E-3
17.68	8.915641904E-4	4.345834916E-4	-2.278117708E-3
17.69	7.562202363E-4	-1.003395303E-3	-1.418747818E-3
17.7	-8.582596260E-5	2.908970665E-4	-1.553877609E-3
17.71	-7.720483839E-5	-1.931591884E-3	-2.256344908E-3
17.72	-7.720483839E-5	-1.011224046E-4	-1.418747818E-3
17.73	-7.720483839E-5	7.137523813E-4	-1.418747818E-3
17.740000000000002	8.372703809E-5	7.204736347E-4	-1.418747818E-3
17.75	8.827951199E-4	7.103996326E-4	-1.761817190E-3
17.76	7.040102609E-4	7.021500009E-4	-3.021177799E-3
17.77	8.693179379E-5	7.021500009E-4	-1.418747818E-3
17.78	6.814823367E-4	3.214967010E-4	-1.418747818E-3
17.79	9.926871091E-5	-1.027283190E-3	-1.418747818E-3
17.8	4.511596929E-4	-6.594854196E-4	-1.626687268E-3
17.81	-8.598192904E-4	-2.392060512E-3	-1.968367922E-3
17.82	1.329651613E-4	-2.888600620E-3	-4.387476200E-4
17.830000000000002	8.804513489E-4	-2.103162294E-3	-8.981274342E-4
17.84	8.679588731E-4	-2.315154630E-3	-1.924792695E-3
17.85	6.134373724E-4	-3.017876538E-3	-4.387476200E-4
17.86	3.882824139E-4	-2.977580683E-3	-6.903422297E-4
17.87	1.054185057E-3	-2.424878051E-3	-1.159903112E-3
17.88	-8.183947584E-4	-1.228514210E-3	-7.048424680E-4
17.89	-9.999407304E-5	-1.378370949E-3	-1.418747818E-3
17.900000000000002	4.453955871E-4	3.198818227E-4	-1.418747818E-3
17.91	1.529075661E-3	1.009212796E-3	-1.130902633E-3
17.92	5.366883520E-4	9.961267129E-4	-1.029030989E-3
17.93	1.691213231E-4	6.858238520E-4	-2.096247799E-3
17.94	8.327951117E-4	3.255783391E-4	-1.728497385E-3
17.95	8.295604246E-4	9.789153202E-4	-2.081747572E-3
17.96	1.140427743E-3	9.688412937E-4	-1.094497775E-3
17.97	4.701185876E-4	6.373640518E-4	-1.071953627E-4
17.98	-1.415937662E-3	-3.298380265E-4	5.412522054E-4
17.990000000000002	2.083531694E-4	-6.081631652E-4	1.950976770E-4
18.0	4.766027606E-4	3.575619013E-5	-1.145556939E-3
18.01	2.197698207E-4	3.917643907E-4	-1.677437745E-3
18.02	1.189437661E-3	6.317533276E-4	-4.387476200E-4
18.03	1.775138868E-3	4.034769654E-4	-8.139027595E-4
18.04	1.001767015E-3	9.982473018E-4	-1.036282326E-3
18.05	-1.832271854E-4	9.921500205E-4	-8.285572672E-4
18.06	2.158032171E-4	1.381106419E-3	-1.021688061E-3
18.07	-7.573192857E-6	1.943898766E-3	-1.651676969E-3
18.080000000000002	7.487614160E-5	1.516390504E-3	-2.144067791E-3
18.09	2.168784466E-3	9.336028632E-4	-8.575577438E-4
18.1	1.443309827E-3	9.178024545E-4	-1.418747818E-3
18.11	6.507077329E-4	9.121500167E-4	-1.418747818E-3
18.12	1.287583409E-3	9.076529151E-4	-9.780330787E-4
18.13	7.382240636E-4	8.975789258E-4	-8.867124740E-4
18.14	7.281500999E-4	8.875049621E-4	-1.418747818E-3
18.150000000000002	7.180761143E-4	8.774309765E-4	-1.418747818E-3
18.16	2.526660429E-4	8.673569882E-4	-1.418747818E-3
18.17	6.922724403E-4	8.572822359E-4	-4.646672020E-4
18.18	1.193482953E-3	8.472074402E-4	5.688267816E-5
18.19	-2.804112266E-4	1.328753214E-3	-9.303674510E-4
18.2	-1.237023801E-3	2.794618237E-3	-1.418747818E-3
18.21	2.808260272E-4	3.220536587E-3	-1.924867502E-3
18.22	1.631617881E-4	2.721673029E-3	-1.885377470E-3
18.23	-6.958760686E-4	3.737614543E-3	-1.939449718E-3
18.240000000000002	-2.272048339E-4	4.092573388E-3	-1.870722987E-3
18.25	8.269585327E-4	3.070489291E-3	-8.834730094E-4
18.26	6.177454812E-4	2.058553233E-3	-9.812725430E-4
18.27	-7.957598825E-4	1.067985013E-3	-1.418747818E-3
18.28	-1.205836960E-3	6.421500097E-4	-8.617226565E-4
18.29	-7.441238498E-5	6.363921095E-4	-1.003022908E-3
18.3	1.870126853E-4	6.379828258E-4	-1.418747818E-3
18.31	-7.843195957E-4	6.362425742E-4	-1.418747818E-3
18.32	-5.910250465E-4	6.321500266E-4	-8.325679124E-4
18.330000000000002	3.901696248E-4	6.321500266E-4	-1.032177635E-3
18.34	7.666657429E-4	6.260206205E-4	-1.418747818E-3
18.35	1.610683940E-4	6.221499971E-4	-1.418747818E-3
18.36	-2.009264987E-4	6.158716702E-4	-1.418747818E-3
18.37	-1.972048383E-4	6.121500140E-4	-1.418747818E-3
18.38	-1.972048383E-4	6.121500140E-4	-2.048582208E-3
18.39	4.333791428E-4	6.056491288E-4	-1.124577750E-3
18.400000000000002	-4.961502193E-4	6.021499845E-4	-1.083082727E-3
18.41	-4.989708791E-4	6.087988318E-4	-1.418747818E-3
18.42	-1.604809714E-4	6.121500140E-4	-2.736625515E-3
18.43	-1.572048364E-4	-4.039016584E-5	-2.712612566E-3
18.44	-1.434611319E-4	-3.409781128E-4	-1.725306162E-3
18.45	-1.372048354E-4	-3.309036425E-4	-2.099487261E-3
18.46	-1.372048354E-4	-1.008819582E-3	-1.710757694E-3
18.47	5.438466249E-4	-1.283661359E-3	-1.418747818E-3
18.48	1.345331897E-4	-5.680798279E-4	-1.418747818E-3
18.490000000000002	-1.444475218E-4	-9.903901130E-4	-1.418747818E-3
18.5	-1.472048417E-4	-1.235901258E-3	-1.418747818E-3
18.51	-8.492746941E-4	-1.220459737E-3	-1.418747818E-3
18.52	3.510759838E-4	-1.934524978E-3	-1.418747818E-3
18.53	8.352553621E-4	-6.925201108E-4	-2.896537649E-3
18.54	9.426373782E-5	-2.078499667E-4	-1.886457454E-3
18.55	-1.448925472E-4	5.301698850E-4	-1.418747818E-3
18.56	-1.394431493E-4	7.028027445E-6	-2.179392769E-3
18.57	-8.972647013E-4	-2.000143114E-4	-1.630852178E-3
18.580000000000002	4.275086930E-4	-9.652067380E-4	-1.418747818E-3
18.59	8.248099213E-4	-1.926444367E-3	-6.361976735E-4
18.6	-7.409328021E-4	-2.093668536E-3	-2.808520798E-3
18.61	-3.118655894E-4	-2.063445691E-3	-1.784338732E-3
18.62	-1.189961152E-4	-2.025015095E-3	-6.142930582E-4
18.63	-1.089221374E-4	-3.599845757E-3	-4.387476200E-4
18.64	-1.072048398E-4	-3.075468367E-3	-4.387476200E-4
18.650000000000002	-9.877417631E-5	-2.874127215E-3	-1.264952771E-3
18.66	-1.057094833E-4	-2.017385512E-3	-1.418747818E-3
18.67	-9.004488937E-5	-1.009852489E-3	-1.418747818E-3
18.68	-7.855065889E-5	-1.974038412E-5	-1.418747818E-3
18.69	-7.720483839E-5	9.587814871E-4	-2.274107019E-3
18.7	-6.840269680E-5	1.073347834E-3	-1.536137918E-3
18.71	-6.720483791E-5	1.063273871E-3	-1.418747818E-3
18.72	7.920049745E-4	1.062149995E-3	-5.416375698E-4
18.73	8.837710351E-4	1.053125927E-3	-3.091827932E-3
18.740000000000002	1.440239240E-7	1.052150012E-3	-1.595246527E-3
18.75	-8.720483886E-5	1.052150012E-3	-2.317762000E-3
18.76	-9.749744208E-4	1.052150012E-3	-2.398747271E-3
18.77	-1.243683401E-4	-7.562366350E-4	-2.398747271E-3
18.78	-5.720484035E-5	9.254933380E-4	-1.477982789E-3
18.79	-4.773529747E-5	1.042150029E-3	-3.274777803E-3
18.8	-4.720483987E-5	1.164283151E-4	-2.443482048E-3
18.81	8.762208547E-4	1.005194739E-3	-4.284075107E-3
18.82	9.127951621E-4	1.022763854E-3	-2.458907741E-3
18.830000000000002	8.932610259E-4	1.022149969E-3	-3.355917306E-3
18.84	8.829540991E-4	1.022149969E-3	-4.854875946E-4
18.85	-7.895991597E-5	2.935745103E-3	-3.353757702E-3
18.86	-1.056136107E-3	1.953251764E-3	-2.399827026E-3
18.87	1.846406997E-3	1.925761855E-3	-3.366100221E-3
18.88	8.627951539E-4	9.421500123E-4	-1.418747818E-3
18.89	8.014162768E-4	9.626096393E-4	-1.460088911E-3
18.900000000000002	-1.963999312E-3	1.911865091E-3	-3.350822351E-3
18.91	8.727951369E-4	1.901429132E-3	-2.363422200E-3
18.92	8.727951369E-4	1.839140306E-3	-1.461322958E-3
18.93	7.746697504E-4	8.921500041E-4	-2.448572607E-3
18.94	-9.442188497E-4	8.921500041E-4	-3.378747469E-3
18.95	8.827951199E-4	8.914935185E-4	-3.314411764E-3
18.96	8.827951199E-4	8.821500211E-4	-2.398747271E-3
18.97	8.038275437E-4	8.821500211E-4	-2.319779735E-3
18.98	-9.544791230E-5	8.821500211E-4	-1.418747818E-3
18.990000000000002	-1.697312107E-4	8.811961381E-4	-1.512228016E-3
19.0	-1.146923102E-3	8.721499915E-4	-2.499493562E-3
19.01	-1.906863183E-3	9.780779425E-4	-3.162477940E-3
19.02	-7.887898896E-4	2.060564909E-3	-1.534132617E-3
19.03	8.014115059E-4	3.401742067E-3	-2.398747271E-3
19.04	-4.587948184E-5	8.121500003E-4	-2.138977117E-3
19.05	9.713173269E-5	8.121500003E-4	-8.501533613E-4
19.06	9.227951451E-4	8.121500003E-4	-3.234362102E-3
19.07	7.711357781E-4	8.106024583E-4	-2.398747271E-3
19.080000000000002	-5.720484035E-5	8.021500173E-4	-2.398747271E-3
19.09	-2.217979478E-4	6.392537397E-4	-2.232457413E-3
19.1	-8.536647083E-4	-3.278484391E-4	-1.592287821E-3
19.11	-2.279950199E-4	-7.581143679E-4	-2.398747271E-3
19.12	-8.372157797E-4	6.479182266E-4	-2.586817257E-3
19.13	3.477015648E-4	-3.213003601E-4	-2.987858116E-3
19.14	1.286779022E-3	-8.930868550E-4	-1.418747818E-3
19.150000000000002	-6.194571983E-4	9.781037219E-5	-1.418747818E-3
19.16	9.127951621E-4	8.521499789E-4	-1.635942733E-3
19.17	9.082146346E-4	8.498597258E-4	-2.398747271E-3
19.18	6.634640805E-4	8.421499959E-4	-2.167052126E-3
19.19	1.593395916E-4	8.397113975E-4	-1.657730731E-3
19.2	1.134117361E-3	8.321500129E-4	-2.152397615E-3
19.21	1.599195259E-3	8.295622513E-4	-1.672347563E-3
19.22	6.146068498E-4	8.221499833E-4	-2.137897388E-3
19.23	-9.446912366E-5	5.567855864E-4	-1.418747818E-3
19.240000000000002	-3.597454075E-4	-4.203905311E-4	-1.694097928E-3
19.25	-4.948878155E-4	-1.671515946E-3	-2.398747271E-3
19.26	8.868797967E-4	-2.739126470E-3	-1.819046376E-3
19.27	8.727951369E-4	-2.315900998E-3	-1.033042224E-3
19.28	8.696879486E-4	-2.664023434E-3	-2.094242467E-3
19.29	8.627951539E-4	-1.958306380E-3	-1.730502754E-3
19.3	1.491040073E-3	-1.931339639E-3	-2.398747271E-3
19.31	1.817358183E-3	-1.588265492E-3	-3.051258093E-3
19.32	-1.372048354E-4	-9.210437239E-4	-4.025242152E-3
19.330000000000002	-1.372048354E-4	-2.332929973E-4	-2.356480779E-3
19.34	-4.817136576E-4	6.876411593E-4	-1.134868403E-3
19.35	-4.072646383E-4	4.103067937E-4	-2.398747271E-3
19.36	1.085765950E-4	3.042308279E-4	-2.398747271E-3
19.37	-3.749334612E-4	-9.103007825E-4	-2.768657643E-3
19.38	8.289465425E-4	-8.940013662E-4	-3.378747469E-3
19.39	4.462297216E-4	-5.034394298E-4	-3.763158080E-3
19.400000000000002	2.465231583E-4	-6.793031406E-4	-3.575302825E-3
19.41	4.278021950E-4	-1.833777837E-3	-3.196877508E-3
19.42	-1.472048417E-4	-1.815411741E-3	-3.546117208E-3
19.43	-1.429847852E-4	-1.380064665E-3	-1.571616871E-3
19.44	2.750224641E-4	-3.870346062E-4	-8.595630889E-4
19.45	8.184271207E-4	1.721500164E-4	-1.846813088E-3
19.46	-4.464502224E-5	5.986487359E-4	-3.269515708E-3
19.47	2.019200009E-4	1.132149969E-3	-3.473307493E-3
19.48	9.120379256E-4	1.122966921E-3	-2.398747271E-3
19.490000000000002	3.106843566E-4	1.112150003E-3	-2.855967597E-3
19.5	8.227951287E-4	1.107410518E-3	-2.914277020E-3
19.51	3.510004352E-4	1.092521528E-3	-1.926952824E-3
19.52	-1.523158099E-4	1.077260940E-3	-2.376997341E-3
19.53	3.292440982E-4	1.067186976E-3	-2.405997710E-3
19.54	-1.593440406E-4	1.052076030E-3	-9.251226343E-4
19.55	-6.112186655E-4	1.042150029E-3	-1.440497844E-3
19.56	-6.249602323E-4	1.036965037E-3	-2.398747271E-3
19.57	-5.665704479E-4	1.026891028E-3	-2.398747271E-3
19.580000000000002	-6.144974766E-4	1.022149969E-3	-2.921372934E-3
19.59	-1.826729190E-5	1.016743084E-3	-2.318996313E-3
19.6	8.727951369E-4	1.012149986E-3	-1.955957845E-3
19.61	-2.051523239E-4	1.006593566E-3	-2.398747271E-3
19.62	-5.154245509E-4	1.002150003E-3	-2.398747271E-3
19.63	4.604167710E-4	1.549771600E-3	-2.398747271E-3
19.64	-2.426063978E-4	1.395780306E-3	-2.398747271E-3
19.650000000000002	8.431098487E-5	2.679788905E-3	-1.825062697E-3
19.66	-2.570380518E-4	3.864369076E-3	-1.418747818E-3
19.67	1.228566102E-4	3.834149072E-3	-2.006778371E-3
19.68	1.486019380E-3	3.208549495E-3	-2.994122125E-3
19.69	6.635742714E-4	1.600629419E-3	-1.570691468E-3
19.7	5.103770100E-4	2.043538465E-3	-1.048779229E-3
19.71	-3.492858087E-4	2.759551132E-3	-8.014078226E-4
19.72	-4.363407618E-4	1.496794192E-3	-1.063239454E-3
19.73	5.415894223E-4	1.407390025E-3	-2.050433300E-3
19.740000000000002	1.521831651E-3	1.119634239E-3	-3.037783924E-3
19.75	5.701144623E-4	7.755547062E-4	-2.086067010E-3
19.76	-9.720483934E-5	7.721500216E-4	-1.418747818E-3
19.77	-7.513021410E-4	7.721500216E-4	-7.579071033E-4
19.78	-3.991141536E-4	7.653327496E-4	-1.106838436E-3
19.79	-7.487632065E-4	7.621499921E-4	-1.418747818E-3
19.8	-3.576487163E-4	7.551847905E-4	-1.418747818E-3
19.81	-5.720484035E-5	7.521500091E-4	-1.418747818E-3
19.82	-1.437378105E-3	7.450356928E-4	-1.418747818E-3
19.830000000000002	7.992110271E-4	7.349612618E-4	-2.123242952E-3
19.84	-2.351791144E-4	7.394126950E-4	-3.110493082E-3
19.85	3.934500111E-4	7.421499795E-4	-2.659751560E-3
19.86	9.127951621E-4	7.347381533E-4	-1.672387475E-3
19.87	9.053089474E-4	7.321499965E-4	-2.152397689E-3
19.88	-1.289665119E-3	7.321499965E-4	-2.398747271E-3
19.89	-1.981936479E-3	-8.366318643E-6	-1.650597171E-3
19.900000000000002	-1.213975843E-3	-9.856601591E-4	-1.418747818E-3
19.91	5.228376440E-4	-1.955087467E-3	-1.418747818E-3
19.92	-1.333797030E-3	-6.198820029E-4	-2.188802519E-3
19.93	-4.105260601E-4	-9.592918129E-4	-1.621442484E-3
19.94	1.545894592E-3	4.032550666E-4	-1.418747818E-3
19.95	3.491842551E-4	7.759907201E-4	-2.210552831E-3
19.96	-1.905121269E-5	7.721500216E-4	-2.398747271E-3
19.97	-1.720484136E-5	7.721500216E-4	-2.398747271E-3
19.98	7.797477801E-4	7.638484069E-4	-1.585191884E-3
19.990000000000002	1.386137424E-4	7.453962022E-4	-5.978124642E-4
20.0	8.024253072E-4	7.337001979E-4	-1.266827786E-3
20.01	1.258823169E-4	-9.131507773E-4	-2.254185058E-3
20.02	-1.720484136E-5	-1.189249478E-3	-2.398747271E-3
20.03	1.657000961E-3	-2.029290204E-3	-2.398747271E-3
20.04	2.070822083E-4	-2.988838346E-3	-2.398747271E-3
20.05	-8.928447349E-4	-3.072565940E-3	-1.534286825E-3
20.06	-1.861125864E-3	-3.903980940E-3	-3.162169523E-3
20.07	6.611232506E-4	-3.101839291E-3	-3.378747469E-3
20.080000000000002	2.717437043E-3	-2.961671876E-3	-1.606016702E-3
20.09	2.306460715E-4	-2.930490057E-3	-1.418747818E-3
20.1	-9.098366134E-4	6.578417848E-4	-5.177276414E-4
20.11	-7.893468251E-5	8.241598738E-5	-2.255287605E-3
20.12	-1.654688454E-5	9.089861088E-4	-3.314267685E-3
20.13	-1.834497445E-3	5.879565525E-5	-1.533207015E-3
20.14	8.238765456E-4	2.150025820E-6	-4.887271648E-4
20.150000000000002	3.552453013E-5	1.171400671E-5	-1.376018437E-3
20.16	1.872198616E-3	9.373947314E-4	-3.307788883E-3
20.17	-9.032532667E-4	9.624365017E-4	-2.426826621E-3
20.18	-3.781710131E-5	1.276227997E-5	-2.398747271E-3
20.19	-7.343358835E-6	-9.545522567E-4	-2.398747271E-3
20.2	9.565351841E-4	5.825498900E-6	-2.398747271E-3
20.21	-1.628859457E-5	9.812337906E-4	-2.397821578E-3
20.22	9.363052471E-4	1.223501965E-5	-1.418747818E-3
20.23	-9.562084566E-4	2.230897072E-5	-1.434325447E-3
20.240000000000002	9.401156496E-4	5.436669445E-5	-2.398747271E-3
20.25	-4.667128060E-5	9.626835798E-4	-2.428827602E-3
20.26	-9.406420005E-4	6.871281648E-5	-3.378747469E-3
20.27	-1.675144086E-5	9.921500205E-4	-3.334314210E-3
20.28	4.410498270E-5	9.921500205E-4	-2.346908509E-3
20.29	9.035601595E-4	9.915455826E-4	-1.418747818E-3
20.3	-1.720484136E-5	9.814717189E-4	-1.551697216E-3
20.31	5.638777816E-5	9.713990175E-4	-3.378747469E-3
20.32	9.619687823E-4	9.613235980E-4	-3.297762046E-3
20.330000000000002	8.654599783E-4	9.521499953E-4	-2.398747271E-3
20.34	-1.117161337E-4	9.511756536E-4	-2.398747271E-3
20.35	-8.855173867E-4	9.421500123E-4	-2.296011607E-3
20.36	-1.720484136E-5	9.410275273E-4	-1.528750954E-3
20.37	-1.333972267E-4	9.321499827E-4	-2.398747271E-3
20.38	-9.872047768E-4	9.308781447E-4	-2.274107007E-3
20.39	-9.858589578E-4	9.221499997E-4	-1.550638232E-3
20.400000000000002	-9.757849945E-4	9.221499997E-4	-2.398747271E-3
20.41	-6.759171545E-4	9.206562193E-4	-2.545138024E-3
20.42	8.291301523E-4	9.105820019E-4	-3.378747469E-3
20.43	1.621970228E-4	1.219310397E-3	-3.056657159E-3
20.44	9.710778569E-4	2.660420039E-3	-1.587043058E-3
20.45	7.890410275E-4	2.002321549E-3	-2.574292727E-3
20.46	1.737254695E-4	2.955619150E-3	-3.195951862E-3
20.47	9.608559141E-4	3.328180168E-3	-2.588792966E-3
20.48	5.622299547E-4	1.728123536E-3	-2.984155928E-3
20.490000000000002	-1.185520262E-3	1.505484392E-3	-1.418747818E-3
20.5	-1.515466984E-3	7.221500135E-4	-1.630697970E-3
20.51	-2.019317815E-4	7.176765328E-4	-1.960346517E-3
20.52	-9.448941292E-4	7.021500009E-4	-8.916485537E-4
20.53	-4.721882498E-4	4.708340542E-4	-2.866148668E-3
20.54	7.718065078E-4	-3.177945245E-5	-3.876770239E-3
20.55	2.811502814E-4	6.921500178E-4	-2.150392289E-3
20.56	7.571899100E-4	6.895417932E-4	-1.418747818E-3
20.57	3.279515520E-5	6.794677953E-4	-1.418747818E-3
20.580000000000002	3.279515520E-5	6.693938314E-4	-1.418747818E-3
20.59	-5.134255468E-4	6.621500222E-4	-1.696103257E-3
20.6	-1.891396544E-3	6.592458735E-4	-1.829535906E-3
20.61	-7.185335900E-4	6.491714083E-4	-7.306494421E-4
20.62	8.249152884E-4	6.421500097E-4	-2.017268125E-3
20.63	-6.574188184E-4	6.421500097E-4	-2.765726890E-3
20.64	2.019593414E-3	6.421500097E-4	-1.732508087E-3
20.650000000000002	1.688508898E-3	3.244150543E-4	-1.756726226E-3
20.66	1.016095944E-3	-3.278499724E-4	-7.670083670E-4
20.67	6.672843065E-4	-6.599371853E-4	-1.754258445E-3
20.68	3.621118949E-4	-1.290853698E-3	-1.713117670E-3
20.69	6.390567241E-4	-9.241115513E-4	-7.889129845E-4
20.7	7.030375779E-4	-1.345507839E-3	-1.061332320E-3
20.71	1.197185093E-3	-2.451076687E-3	-1.168078551E-3
20.72	-2.720484110E-5	-1.204054916E-3	-1.654916081E-3
20.73	3.480918695E-4	-8.148151717E-4	-1.197079020E-3
20.740000000000002	1.739063585E-4	-2.039069540E-4	-2.398747271E-3
20.75	-9.991708121E-4	-1.938329811E-4	-1.611415402E-3
20.76	-1.893378866E-4	-1.878499774E-4	-4.387476200E-4
20.77	9.586286028E-4	2.163039867E-4	-1.255388489E-3
20.78	1.359884658E-3	-4.051018210E-5	-1.983176885E-3
20.79	1.481345359E-3	-1.153535469E-3	-1.841568324E-3
20.8	9.084066914E-4	-1.569143813E-3	-1.968676656E-3
20.81	3.707815687E-5	-2.094462482E-3	-1.418747818E-3
20.82	-5.971009047E-4	-1.628671720E-3	-1.418747818E-3
20.830000000000002	-5.191803161E-4	-1.530601442E-3	-1.870723033E-3
20.84	-1.042518850E-3	-2.033792035E-3	-1.939521938E-3
20.85	-1.032444837E-3	-2.465285906E-3	-1.885223262E-3
20.86	-8.458711590E-5	-2.938514263E-3	-1.925021711E-3
20.87	-3.424879342E-5	-1.950990147E-3	-1.418747818E-3
20.88	9.057718068E-4	-9.378861634E-4	-2.395199763E-3
20.89	1.861686802E-3	-9.227933111E-4	-2.883193212E-3
20.900000000000002	4.001774475E-4	-4.149694344E-4	-1.895866997E-3
20.91	4.325149719E-4	5.618698329E-4	-1.418747818E-3
20.92	3.806937387E-4	1.016870583E-3	-9.013669223E-4
20.93	9.613502043E-4	1.006796619E-3	-9.633786319E-4
20.94	2.777573613E-4	9.967218011E-4	-1.950712256E-3
20.95	1.036011978E-5	4.638704414E-4	-1.859462168E-3
20.96	3.418365191E-4	5.675317517E-4	-1.965283030E-3
20.97	4.552790406E-4	9.921500205E-4	-1.844961939E-3
20.98	3.174842529E-4	4.368391198E-4	-8.577119523E-4
20.990000000000002	4.594833636E-4	2.215001513E-5	-1.007033613E-3
21.0	8.627951539E-4	5.801553840E-4	-1.994374120E-3
21.01	1.433838802E-3	9.721499613E-4	-1.815807233E-3
21.02	1.226582304E-3	3.879818612E-4	-8.285572077E-4
21.03	8.266987894E-4	5.813016078E-4	1.586928721E-4
21.04	1.415238424E-3	9.459787211E-4	5.412522054E-4
21.05	5.712874210E-4	9.421500123E-4	-6.827452910E-4
21.06	-1.572048364E-4	9.358317184E-4	-2.037938437E-3
21.07	4.565483600E-4	9.257567311E-4	-1.772207899E-3
21.080000000000002	1.818853398E-4	1.543059762E-3	-7.849022451E-4
21.09	4.773489380E-4	1.875608125E-3	-1.079843327E-3
21.1	1.447909250E-3	1.858918401E-3	-1.418747818E-3
21.11	-1.739230187E-4	1.832080731E-3	-2.074343266E-3
21.12	1.749595377E-4	1.159304084E-3	-1.735901725E-3
21.13	1.326991113E-4	8.353122927E-4	-1.418747818E-3
21.14	1.156752357E-3	2.166107151E-3	-2.096093591E-3
21.150000000000002	3.975739336E-4	2.070567940E-3	-1.714151365E-3
21.16	4.835681792E-4	1.073133868E-3	-7.267923391E-4
21.17	7.627951375E-4	7.750136813E-4	-1.138108642E-3
21.18	7.067046073E-5	7.649403681E-4	-7.122037165E-4
21.19	-1.602857282E-3	7.548668310E-4	-4.387476200E-4
21.2	-6.778453949E-4	1.465793980E-3	-1.159748904E-3
21.21	-1.572048364E-4	1.707287677E-3	-2.146998644E-3
21.22	5.707914091E-4	2.415135936E-3	-1.663246306E-3
21.23	1.540502967E-3	1.894120971E-3	-1.418747818E-3
21.240000000000002	1.014865266E-3	1.636838258E-3	-2.169021378E-3
21.25	7.750649103E-4	2.381979993E-3	-2.398747271E-3
21.26	1.590815236E-5	1.829657073E-3	-2.398747271E-3
21.27	5.669450033E-4	1.604272171E-3	-1.626719994E-3
21.28	9.388855087E-6	8.148872628E-4	-6.394370593E-4
21.29	5.913296765E-4	6.121500140E-4	-2.011868719E-3
21.3	-1.582437094E-3	6.040498795E-4	-1.604936876E-3
21.31	-5.348306725E-4	5.939746200E-4	-1.418747818E-3
21.32	6.147611226E-4	5.921500015E-4	-1.418747818E-3
21.330000000000002	7.744714906E-4	5.838263885E-4	-2.234462814E-3
21.34	7.727951205E-4	5.821500184E-4	-2.398747271E-3
21.35	7.558519720E-4	-2.311224914E-4	-7.383161906E-4
21.36	7.442495601E-4	-3.693043862E-4	3.987180022E-4
21.37	7.341742327E-4	4.683779531E-4	-2.838142980E-3
21.38	7.241000515E-4	6.021499845E-4	-1.674507170E-3
21.39	1.564627288E-3	6.021499845E-4	-5.593772620E-4
21.400000000000002	-4.160285638E-5	5.933069328E-4	-4.387476200E-4
21.41	-2.582877830E-4	5.921500015E-4	-4.387476200E-4
21.42	-2.001464353E-3	5.831589884E-4	-1.319868573E-3
21.43	-1.290703929E-3	5.821500184E-4	1.246364942E-3
21.44	-3.014428598E-4	5.730095632E-4	-2.061795158E-3
21.45	-1.101801125E-3	-3.032317365E-4	-5.926968168E-4
21.46	-2.577855183E-4	-3.871370286E-4	-4.387476200E-4
21.47	7.114445836E-4	-2.194509711E-3	-1.356119129E-3
21.48	-1.519718381E-4	-2.289540706E-3	-2.343514304E-3
21.490000000000002	7.153105325E-4	-2.268828999E-3	-1.466721930E-3
21.5	-1.096587801E-3	-2.239096640E-3	-4.794716935E-4
21.51	-2.305297749E-4	-3.145885329E-3	-1.385422874E-3
21.52	7.372576439E-4	-2.184983528E-3	4.891131540E-4
21.53	7.529871894E-4	-1.177053484E-3	-4.199281689E-4
21.54	-2.057535932E-4	-2.096634711E-3	-4.387476200E-4
21.55	-2.172048276E-4	-1.564884130E-4	1.512613965E-3
21.56	7.527652467E-4	-1.507510157E-4	-4.387476200E-4
21.57	7.328218839E-4	-1.097591788E-3	-4.387476200E-4
21.580000000000002	-2.344608585E-4	8.150718789E-4	-4.561815519E-4
21.59	-1.138040541E-3	-1.524321205E-4	-1.443583363E-3
21.6	7.213643332E-4	-1.065764338E-3	-2.366661658E-3
21.61	-2.072048329E-4	-1.953174098E-4	-1.379412016E-3
21.62	-2.528399687E-4	-2.000788705E-3	-5.319193379E-4
21.63	-1.113368813E-3	-1.110587281E-3	-2.344911271E-3
21.64	-1.273559684E-4	-2.076452009E-3	-1.296556381E-3
21.650000000000002	7.720963493E-4	-2.887274043E-3	2.673334369E-4
21.66	6.887397237E-4	-1.946307103E-3	-3.303149217E-3
21.67	-1.972048383E-4	-1.761021679E-3	-2.398747271E-3
21.68	-1.962840124E-4	1.305492403E-4	-2.398747271E-3
21.69	-9.170349394E-5	1.000160396E-3	-2.203765397E-3
21.7	6.691064740E-4	9.810810741E-4	-5.435052471E-4
21.71	-3.082059840E-4	9.721499613E-4	-1.306602308E-3
21.72	-9.296320378E-4	9.709316413E-4	-6.775387117E-4
21.73	7.827951035E-4	9.621499783E-4	-2.525393018E-3
21.740000000000002	5.177360806E-4	9.621499783E-4	-3.110955908E-3
21.75	-8.777934006E-4	9.592694534E-4	-1.418747818E-3
21.76	9.266710576E-4	9.421500123E-4	-1.121909023E-3
21.77	1.422784133E-3	9.405602074E-4	7.385103739E-5
21.78	-3.785916117E-4	7.707632024E-4	-2.235696793E-3
21.79	-1.015166399E-3	1.289751501E-4	-1.589048377E-3
21.8	1.542732813E-4	9.221499997E-4	-2.398747271E-3
21.81	1.556108536E-3	9.202642795E-4	-2.213946483E-3
21.82	5.627038233E-4	9.101903064E-4	-1.418747818E-3
21.830000000000002	-2.172048276E-4	9.001159855E-4	-1.219415284E-3
21.84	-1.471781339E-5	8.900407678E-4	-6.454531656E-4
21.85	3.192502845E-4	1.093922436E-3	-1.418747818E-3
21.86	-9.759990598E-4	1.628687026E-3	-1.418747818E-3
21.87	-2.148736463E-4	1.312068238E-3	-1.190291886E-3
21.88	-2.072048329E-4	2.551633738E-3	-9.101594911E-4
21.89	3.327213652E-5	2.027668716E-3	-2.398747271E-3
21.900000000000002	1.007895114E-3	2.486837477E-3	-2.398747271E-3
21.91	9.555595260E-4	1.991764316E-3	-2.141250514E-3
21.92	-6.728886725E-4	2.424586604E-3	-1.418747818E-3
21.93	1.012129332E-3	1.696596659E-3	-1.690858493E-3
21.94	1.704243295E-3	1.399938391E-3	-2.119386460E-3
21.95	1.112497568E-3	6.892254065E-4	-1.418747818E-3
21.96	-5.551142037E-4	6.821499883E-4	-1.712655134E-3
21.97	-1.224130701E-3	6.790758549E-4	-1.796216222E-3
21.98	-6.064697319E-4	6.690018914E-4	-7.472633597E-4
21.990000000000002	4.134735460E-4	6.621500222E-4	-1.734513455E-3
22.0	7.921891227E-5	9.785737593E-4	-2.398747271E-3
22.01	7.227951589E-4	1.291883938E-3	-2.398747271E-3
22.02	3.921670928E-4	6.421500097E-4	-2.061231308E-3
22.03	1.005785832E-4	6.421500097E-4	-1.763568204E-3
22.04	1.071372200E-3	1.339304177E-3	-2.750918001E-3
22.05	9.776211232E-4	1.859640931E-3	-3.019326632E-3
22.06	-2.572048295E-4	6.121500140E-4	-2.398747271E-3
22.07	-2.533893155E-4	6.159655280E-4	-2.024826478E-3
22.080000000000002	-6.244864776E-4	6.182605023E-4	-1.418747818E-3
22.09	-5.968600665E-5	6.121500140E-4	-1.807229969E-3
22.1	9.151828890E-4	2.203634440E-4	-2.398747271E-3
22.11	1.476448493E-4	-3.537369572E-4	-1.592595932E-3
22.12	3.066562940E-4	-3.436629741E-4	-1.259399176E-3
22.13	1.518491782E-4	-7.511649649E-4	-2.816323332E-3
22.14	1.123286246E-3	-8.786889384E-4	-3.807908676E-3
22.150000000000002	8.130516321E-4	1.054083404E-4	-3.936671536E-3
22.16	-7.165311406E-4	6.466329237E-4	-3.828074051E-3
22.17	-1.252647171E-3	6.521499927E-4	-3.917543273E-3
22.18	-7.932239940E-4	6.475175432E-4	-2.924766554E-3
22.19	6.505505548E-4	6.421500097E-4	-2.398747271E-3
22.2	2.869127838E-4	6.373695988E-4	-2.398747271E-3
22.21	-7.614736489E-4	6.321500266E-4	-1.923016362E-3
22.22	-2.572048295E-4	6.321500266E-4	-9.357664266E-4
22.23	-7.374315294E-4	6.271476505E-4	-1.909441779E-3
22.240000000000002	-2.323944724E-4	-3.575840251E-4	-3.378747469E-3
22.25	2.231352065E-4	-1.802358776E-3	-3.888709874E-3
22.26	7.666153917E-4	-2.257398199E-3	-3.339249614E-3
22.27	1.168109101E-3	-2.756636319E-3	-2.918133516E-3
