Time (s)	Acceleration x (m/s^2)	Acceleration y (m/s^2)	Acceleration z (m/s^2)
0.0	-3.432927764E-2	-5.275069579E-3	4.423886690E-3
0.01	-6.516896220E-2	1.008281809E-2	-1.214330059E-3
0.02	-9.573274730E-2	1.302391992E-2	-9.518830758E-4
0.03	-1.177246135E-1	1.172758156E-2	4.876962052E-3
0.04	-1.208446193E-1	1.680998525E-3	8.097272511E-3
0.05	-1.068686084E-1	-2.987980436E-2	4.817925844E-3
0.06	-8.918560779E-2	-6.365796755E-2	-2.695406523E-3
0.07	-7.811507906E-2	-7.563175373E-2	-1.302531982E-3
0.08	-7.398996082E-2	-6.755196296E-2	2.551679450E-3
0.09	-7.746827440E-2	-5.036675222E-2	2.647897864E-3
0.1	-9.231563918E-2	-2.393861110E-2	1.463804084E-3
0.11	-1.161598257E-1	1.549242724E-2	3.672231767E-4
0.12	-1.431470803E-1	6.523167898E-2	-1.164232161E-4
0.13	-1.564761773E-1	1.004830512E-1	8.625776905E-3
0.14	-1.496567246E-1	9.030418619E-2	8.062951842E-3
0.15	-1.310378193E-1	5.744090913E-2	3.806951990E-3
0.16	-1.096860107E-1	2.845097607E-2	2.457488203E-3
0.17	-8.607301654E-2	-1.240734735E-3	-8.349314847E-4
0.18	-7.270105279E-2	-2.725690465E-2	3.598863039E-3
0.19	-6.905458486E-2	-5.589922141E-2	4.568215761E-3
0.2	-7.417598278E-2	-6.190341017E-2	-2.147967795E-3
0.21	-8.632489535E-2	-4.099812973E-2	-4.164488602E-3
0.22	-9.549250758E-2	-1.491393457E-2	-5.857333204E-5
0.23	-9.155854857E-2	-9.132798418E-3	1.759854708E-3
0.24	-7.998039030E-2	-9.699305908E-3	-3.818134094E-3
0.25	-6.123107112E-2	-3.284596129E-3	-8.368163521E-3
0.26	-3.651463205E-2	4.177132500E-3	-1.018316723E-2
0.27	-1.071177252E-2	4.712612635E-3	-1.159125947E-2
0.28	1.118124121E-2	-2.996555969E-3	-1.059675082E-2
0.29	1.986529761E-2	1.230071679E-3	-3.720892515E-3
0.3	1.288843710E-2	3.418330316E-2	-7.487627028E-3
0.31	-8.708643392E-4	6.721087066E-2	-6.670629542E-3
0.32	-7.970073806E-3	7.060484697E-2	-3.934687224E-3
0.33	-6.797210583E-3	5.159405590E-2	-3.900590423E-3
0.34	-2.684390908E-3	3.587695668E-2	-9.991846549E-3
0.35000000000000003	8.190928269E-3	1.026411856E-2	-1.204910000E-2
0.36	1.938166910E-2	-2.091016407E-2	-6.654528227E-3
0.37	3.782897041E-2	-6.404436129E-2	-4.908147339E-3
0.38	4.754551356E-2	-8.574537416E-2	-5.346135251E-3
0.39	4.465749427E-2	-8.047758044E-2	-8.059992682E-3
0.4	2.876275703E-2	-5.522328704E-2	-9.638730763E-3
0.41000000000000003	8.169718100E-3	-1.936274286E-2	-8.160704222E-3
0.42	-8.919518688E-3	1.711627108E-2	-6.250723448E-3
0.43	-1.684877945E-2	3.926843230E-2	-7.468101193E-3
0.44	-1.826092770E-2	5.381613718E-2	-9.759792188E-3
0.45	-1.657699763E-2	5.859621618E-2	-1.078565039E-2
0.46	-8.134290347E-3	5.520745703E-2	-8.251950777E-3
0.47000000000000003	6.251484542E-3	3.566673805E-2	-6.633394804E-3
0.48	1.935159826E-2	7.295447186E-3	-5.395144072E-3
0.49	2.378661597E-2	-8.298467502E-3	-6.958120909E-3
0.5	1.512256427E-2	-3.493511913E-3	-4.826034803E-3
0.51	1.795829811E-3	2.754478209E-3	-1.742154835E-3
0.52	-4.613608492E-4	-1.426789493E-3	-2.736934683E-3
0.53	1.320487235E-3	-6.598967638E-3	-4.077048714E-3
0.54	8.089657216E-3	-1.422459672E-2	-8.488081541E-3
0.55	2.232692265E-2	-2.240874241E-2	-7.196138945E-3
0.56	4.237748587E-2	-3.287162583E-2	-6.091840899E-4
0.5700000000000001	6.404776688E-2	-3.866593688E-2	7.081768306E-4
0.58	8.141773307E-2	-3.589422773E-2	-1.119268980E-3
0.59	8.932836497E-2	-2.132062684E-2	-1.796167937E-3
0.6	9.179471202E-2	3.123411502E-3	4.664166995E-5
0.61	9.126651885E-2	3.051704650E-2	1.820535498E-3
0.62	8.818325364E-2	5.608542358E-2	-1.192241313E-3
0.63	9.051957095E-2	6.091109874E-2	-2.947624267E-3
0.64	9.647936785E-2	5.905138363E-2	-3.940409270E-3
0.65	1.086802241E-1	5.209191848E-2	2.667249773E-4
0.66	1.246457096E-1	1.818523404E-2	4.851037416E-3
0.67	1.375349124E-1	-1.585996073E-2	1.371185799E-3
0.68	1.408680412E-1	-3.607335788E-2	9.606615762E-4
0.6900000000000001	1.382067769E-1	-3.817719418E-2	3.198730730E-3
0.7000000000000001	1.350155893E-1	-3.901217311E-2	-5.436602307E-2
0.71	1.141135236E-1	-3.622022162E-2	-4.065904483E-2
0.72	9.929992878E-2	-3.272985886E-2	4.661828432E-3
0.73	8.943587446E-2	-7.885823332E-3	1.272216382E-2
0.74	7.888696584E-2	1.759757396E-2	1.156357071E-2
0.75	7.972652126E-2	1.697489114E-2	8.745705571E-3
0.76	8.611831441E-2	1.182641832E-3	4.025367274E-3
0.77	8.278894389E-2	7.487424911E-4	4.804593477E-3
0.78	8.414406025E-2	1.030294766E-2	1.519598100E-4
0.79	7.562541885E-2	2.660594672E-2	1.303665465E-3
0.8	6.724767756E-2	2.199363559E-2	7.195473664E-3
0.81	6.278050506E-2	1.469544579E-2	5.024415407E-3
0.8200000000000001	5.066595667E-2	2.865913924E-2	2.771389269E-3
0.8300000000000001	4.725810021E-2	2.600890108E-2	8.797046654E-4
0.84	4.841271570E-2	1.492408743E-2	7.297607533E-4
0.85	5.399582878E-2	-2.741376512E-3	1.365412475E-3
0.86	6.641104894E-2	-2.334390277E-2	2.314967446E-3
0.87	7.875389469E-2	-4.017028746E-2	7.179900539E-4
0.88	8.367565721E-2	-4.644250096E-2	-2.318080462E-3
0.89	8.454363943E-2	-4.222223786E-2	-9.710583370E-4
0.9	7.684867911E-2	-1.795093122E-2	-1.474378145E-3
0.91	7.073403561E-2	6.519725889E-3	-2.654284086E-3
0.92	6.690522992E-2	1.981616502E-2	4.095536623E-3
0.93	6.201818550E-2	2.573175837E-2	-3.619593230E-3
0.9400000000000001	5.987865837E-2	4.225210550E-2	-2.838286715E-3
0.9500000000000001	6.024930943E-2	4.973042057E-2	-1.092442624E-3
0.96	6.424034901E-2	3.575393453E-2	-1.862974588E-3
0.97	6.919952532E-2	1.240562130E-2	-4.165425211E-3
0.98	6.864246929E-2	5.729119928E-4	-3.909624663E-3
0.99	6.072398031E-2	3.042962149E-3	-2.554129210E-3
1.0	5.118848646E-2	-6.991995313E-4	-2.454397482E-3
1.01	4.153775223E-2	-9.661799742E-3	-3.093068636E-3
1.02	3.250499862E-2	-1.508924988E-2	-5.482616022E-3
1.03	2.337264233E-2	-1.229797836E-2	-8.356590021E-3
1.04	1.438723874E-2	-7.668675362E-3	-8.280764418E-3
1.05	1.160606795E-2	-1.340233098E-2	-7.843760100E-3
1.06	1.360188332E-2	-2.150872800E-2	-6.442991961E-3
1.07	1.402512949E-2	-1.832009210E-2	-7.790181673E-3
1.08	1.165088826E-2	-7.642455801E-3	-8.872431364E-3
1.09	2.075996636E-3	4.541158274E-3	-8.867662993E-3
1.1	-7.299697386E-3	1.167683631E-2	-6.835478392E-3
1.11	-1.850905469E-2	2.689000873E-2	-6.499690842E-3
1.12	-2.754162969E-2	3.646638901E-2	-4.874091561E-3
1.1300000000000001	-3.349002923E-2	3.503570757E-2	-4.661447099E-3
1.1400000000000001	-3.709204512E-2	2.677729304E-2	-3.942753301E-3
1.1500000000000001	-3.785187494E-2	1.564812529E-2	-2.778350051E-3
1.16	-3.662742779E-2	9.554301337E-4	-2.068025349E-3
1.17	-3.658059216E-2	-1.641730110E-2	-2.268313017E-3
1.18	-3.745840228E-2	-3.073654304E-2	-8.249460127E-4
1.19	-3.795295388E-2	-3.141065157E-2	7.923593784E-3
1.2	-4.263152723E-2	-2.189461808E-2	8.854170416E-3
1.21	-4.873681700E-2	-1.545789729E-2	-1.008397922E-2
1.22	-4.807467616E-2	-1.595493402E-2	-8.618277159E-3
1.23	-5.351599542E-2	3.674078073E-3	-2.349189544E-3
1.24	-4.947151703E-2	1.591225454E-2	3.325686598E-4
1.25	-4.079553521E-2	1.213556537E-2	-8.126436140E-4
1.26	-3.591113031E-2	1.725643797E-2	-3.317251392E-3
1.27	-2.675613031E-2	1.619117163E-2	-4.819438995E-3
1.28	-2.322267091E-2	1.680138548E-2	-5.100554075E-3
1.29	-2.092500335E-2	1.278659667E-2	-8.534227278E-4
1.3	-2.234348992E-2	1.521954569E-2	9.261695743E-4
1.31	-2.930621017E-2	1.193312191E-2	2.663550467E-3
1.32	-3.873269230E-2	9.978655793E-3	5.677671717E-3
1.33	-4.725856245E-2	6.951192830E-3	8.200030551E-3
1.34	-5.454599228E-2	7.917922915E-6	1.010184698E-2
1.35	-6.109152001E-2	-1.061897421E-2	1.123928369E-2
1.36	-6.552713392E-2	-2.424768210E-2	8.150604990E-3
1.37	-7.267001903E-2	-3.327286433E-2	6.359464083E-3
1.3800000000000001	-8.530573277E-2	-2.667456245E-2	4.374031893E-3
1.3900000000000001	-9.816365981E-2	-1.811454360E-2	4.776908814E-3
1.4000000000000001	-1.123131126E-1	-1.133685713E-2	4.977764250E-3
1.41	-1.292816393E-1	-4.958058099E-5	3.894196901E-3
1.42	-1.435636762E-1	1.271438760E-2	2.991086397E-3
1.43	-1.528916768E-1	2.473940973E-2	2.287560854E-3
1.44	-1.567737199E-1	2.877792836E-2	2.486073461E-3
1.45	-1.533978902E-1	2.300517122E-2	2.785549504E-3
1.46	-1.455936288E-1	1.473607058E-2	2.313305351E-3
1.47	-1.363886878E-1	8.043143802E-3	1.577400749E-3
1.48	-1.276257614E-1	1.599737004E-3	1.675435457E-3
1.49	-1.193377999E-1	-4.716933474E-3	3.429891023E-3
1.5	-1.098826808E-1	-8.951641286E-3	5.401266289E-3
1.51	-1.006895445E-1	-1.158658894E-2	4.797325475E-3
1.52	-8.960948026E-2	-1.341726969E-2	4.678708467E-3
1.53	-8.140606210E-2	-1.164757100E-2	5.777812230E-3
1.54	-6.712941714E-2	-1.203160693E-2	6.931171758E-3
1.55	-5.049339450E-2	-1.202039699E-2	8.484383974E-3
1.56	-3.593071079E-2	-1.279535274E-2	1.001318112E-2
1.57	-3.022502457E-2	-4.324068954E-3	5.111329281E-3
1.58	-2.709622783E-2	3.066228524E-3	1.811084084E-3
1.59	-2.542951452E-2	9.536490960E-3	2.310883489E-3
1.6	-2.517028070E-2	1.536527795E-2	2.483994674E-3
1.61	-2.485896444E-2	1.862729986E-2	3.764165972E-4
1.62	-2.553949213E-2	2.010193650E-2	-2.263144102E-3
1.6300000000000001	-2.827550645E-2	2.122897972E-2	-3.059893547E-3
1.6400000000000001	-2.993648825E-2	1.543547093E-2	-4.728919241E-3
1.6500000000000001	-3.035814228E-2	3.774185513E-3	-9.697022919E-3
1.6600000000000001	-2.938986237E-2	-8.393074974E-3	-1.102760984E-2
1.67	-3.017294443E-2	-1.130845736E-2	-9.242170897E-3
1.68	-3.251543081E-2	-7.681720361E-3	-9.237466719E-4
1.69	-3.831801450E-2	-7.126266166E-3	-3.241716292E-4
1.7	-4.054456735E-2	-9.144725216E-3	-2.116702584E-3
1.71	-4.124613955E-2	-5.383932616E-3	-2.011665204E-3
1.72	-4.002434206E-2	2.869387125E-4	-5.337135948E-3
1.73	-3.647538808E-2	8.408105821E-4	-7.324787602E-3
1.74	-3.073778278E-2	-1.999418542E-3	-6.466368284E-3
1.75	-2.419931358E-2	-1.436302319E-3	-5.290373411E-3
1.76	-1.911740576E-2	3.800125542E-3	-4.679354983E-3
1.77	-1.500252440E-2	6.159698467E-3	-4.526306615E-3
1.78	-1.186102973E-2	7.292137670E-3	-4.158251244E-3
1.79	-1.027050189E-2	1.115612599E-2	-3.183782478E-3
1.8	-8.754222603E-3	1.470425655E-2	-3.429354277E-3
1.81	-5.643101284E-3	1.325413641E-2	-5.891607847E-3
1.82	-7.295703103E-4	8.378099390E-3	-7.288492530E-3
1.83	8.859703872E-3	-1.723665412E-3	-5.878053871E-3
1.84	1.696985104E-2	-7.556056311E-3	-7.117729342E-3
1.85	2.527198160E-2	-1.095603149E-2	-6.805723753E-3
1.86	3.110138142E-2	-1.325733851E-2	-6.256025877E-3
1.87	3.496994068E-2	-1.221216591E-2	-5.070926593E-3
1.8800000000000001	4.140850828E-2	-8.464840896E-3	-3.502358548E-3
1.8900000000000001	4.468524280E-2	-4.054498891E-3	-2.844144160E-3
1.9000000000000001	4.641027026E-2	4.636935813E-3	-2.662076108E-3
1.9100000000000001	4.902782404E-2	1.191434108E-2	-2.448175993E-3
1.92	5.334811294E-2	1.556904216E-2	-3.480967131E-3
1.93	5.904760524E-2	1.544488420E-2	-3.500560546E-3
1.94	6.574211706E-2	1.079480236E-2	-2.742597340E-3
1.95	7.078158474E-2	7.286449740E-3	-8.174967567E-4
1.96	7.235673370E-2	8.628501174E-3	7.126100721E-4
1.97	7.287536296E-2	8.762124086E-3	-9.591050755E-4
1.98	7.272519638E-2	2.665654204E-3	1.226154120E-3
1.99	7.432870936E-2	-3.277123768E-3	2.150618956E-3
2.0	7.147427918E-2	9.106404194E-4	3.182786031E-4
2.0100000000000002	6.971698367E-2	1.166290388E-3	7.570089433E-4
2.02	6.932917967E-2	-3.751221582E-3	2.632615527E-3
2.0300000000000002	7.075862253E-2	-7.062747096E-3	1.091124223E-3
2.04	7.401409471E-2	-1.119238715E-2	5.934347246E-4
2.05	7.315946185E-2	-9.157315895E-3	1.837617311E-3
2.06	7.127133329E-2	-4.487737220E-3	1.105181308E-3
2.07	6.909941901E-2	-2.404316141E-3	1.853853867E-3
2.08	6.879303375E-2	1.600687355E-3	2.193111775E-3
2.09	6.955047691E-2	6.925228124E-3	1.150282146E-3
2.1	7.034464681E-2	1.032995430E-2	1.096593294E-3
2.11	7.097135508E-2	1.130659698E-2	3.001634035E-3
2.12	7.240752255E-2	1.100458000E-2	3.623990591E-3
2.13	7.618661203E-2	8.186817591E-3	3.273469948E-3
2.14	7.986573839E-2	4.159761191E-3	3.815260181E-3
2.15	8.294204626E-2	-1.445720955E-4	4.682844402E-3
2.16	8.496708834E-2	-4.929346248E-3	3.530484590E-3
2.17	8.542485797E-2	-4.742598936E-3	6.080800447E-3
2.18	8.694757783E-2	-6.481747731E-3	4.790765199E-3
2.19	8.982581990E-2	-7.727442127E-3	4.258214623E-3
2.2	9.396239540E-2	-8.400032515E-3	4.261153712E-3
2.21	9.652797588E-2	-6.767751991E-3	4.057988934E-3
2.22	9.870170043E-2	-5.069925074E-3	3.707526698E-3
2.23	1.003664013E-1	-4.166458651E-3	3.853188906E-3
2.24	1.014202377E-1	-1.696216717E-3	2.325498018E-3
2.25	1.008751967E-1	1.931974579E-3	1.313997130E-3
2.2600000000000002	9.752315115E-2	5.307382974E-3	1.243854663E-3
2.27	9.248306296E-2	8.575523422E-3	1.264324211E-4
2.2800000000000002	8.574984828E-2	1.181436931E-2	-9.137923198E-4
2.29	7.779233897E-2	1.415052538E-2	-8.768068220E-4
2.3000000000000003	7.127800190E-2	1.259391126E-2	-2.674387541E-3
2.31	6.267017885E-2	7.999815164E-3	2.576473544E-3
2.32	5.732172347E-2	-1.629431948E-3	-5.303560164E-4
2.33	5.038045013E-2	-4.026253924E-3	-4.459494200E-3
2.34	3.634750295E-2	3.158930351E-3	-1.431801585E-3
2.35	3.231706716E-2	-1.083449416E-2	3.354304035E-4
2.36	2.165520394E-2	-1.118912946E-2	7.169927690E-4
2.37	1.424620294E-2	-5.634198889E-3	-3.075064268E-3
2.38	1.048996687E-2	-3.783392720E-3	-3.321201487E-3
2.39	3.616521843E-3	-1.693938620E-3	-2.561216516E-3
2.4	3.477659213E-4	-1.366773948E-3	-2.551249113E-3
2.41	5.653509634E-4	-1.383628949E-3	-1.438196745E-3
2.42	-6.211515518E-4	2.017881899E-3	-2.973002043E-3
2.43	-1.688847893E-3	4.424915037E-3	-4.853969033E-3
2.44	-2.522088578E-3	4.694516463E-3	-5.893016224E-3
2.45	-3.912088419E-3	7.558668545E-3	-6.827532779E-3
2.46	-3.559188084E-3	1.200876844E-2	-5.817106810E-3
2.47	3.452760862E-4	5.236816749E-3	-4.499128905E-3
2.48	7.408273983E-4	1.586377093E-3	-5.571571080E-3
2.49	2.307998062E-3	2.314658183E-3	-5.622220191E-3
2.5	6.643175720E-3	8.028034876E-5	-6.020468321E-3
2.5100000000000002	8.800676952E-3	-6.442352327E-3	-5.476614938E-3
2.52	1.149394906E-2	-1.247050769E-2	-5.689651751E-3
2.5300000000000002	1.138963246E-2	-1.291333865E-2	-4.057844725E-3
2.54	8.104979335E-3	-6.511817381E-3	-2.558439818E-3
2.5500000000000003	2.577395719E-3	-2.692003987E-3	-1.384134714E-3
2.56	-6.604269355E-5	-2.266379746E-3	-4.377080623E-4
2.57	-5.950289648E-3	2.306639967E-3	-2.072118898E-3
2.58	-7.743728459E-3	2.930035808E-3	1.289460372E-3
2.59	-1.064640845E-2	6.121330455E-3	1.746121797E-3
2.6	-1.938811815E-2	1.339721392E-2	3.108991716E-4
2.61	-2.037468761E-2	4.860928289E-3	5.184002796E-3
2.62	-2.304158893E-2	-1.549611149E-3	-1.139784021E-3
2.63	-3.412596605E-2	4.729950210E-3	-4.942755120E-3
2.64	-3.867402301E-2	1.601128035E-3	-2.598770203E-3
2.65	-4.683467186E-2	-3.904627666E-3	2.569943819E-3
2.66	-6.128607428E-2	7.322262198E-3	6.737531755E-4
2.67	-6.031594312E-2	-3.727015405E-4	-4.264181700E-3
2.68	-6.446257792E-2	-5.312916257E-3	-4.334721248E-4
2.69	-7.098744867E-2	-7.425365442E-3	3.431625707E-3
2.7	-7.229012198E-2	-5.987572962E-3	3.559266717E-3
2.71	-7.861026612E-2	-1.289112053E-3	4.930258694E-4
2.72	-8.416544593E-2	-2.764030203E-3	2.572041902E-3
2.73	-8.811319864E-2	-4.101144478E-3	7.329198274E-3
2.74	-9.244499198E-2	-2.491259624E-4	8.003195942E-3
2.75	-9.599576459E-2	2.313118449E-3	7.083639184E-3
2.7600000000000002	-1.001869679E-1	2.856502611E-3	7.191076328E-3
2.77	-1.040367795E-1	1.672954220E-3	7.907044601E-3
2.7800000000000002	-1.042800001E-1	-7.846965938E-4	7.657796297E-3
2.79	-1.049317960E-1	3.616475017E-4	5.723363313E-3
2.8000000000000003	-1.045156814E-1	-2.374254753E-3	5.271269883E-3
2.81	-1.032945342E-1	-6.065962356E-3	4.965021574E-3
2.82	-1.045856837E-1	-4.839323863E-3	5.225545320E-3
2.83	-1.034941681E-1	-2.114309883E-3	2.947935578E-3
2.84	-1.004343780E-1	-1.518187190E-3	4.343574299E-3
2.85	-9.583638541E-2	-2.677964402E-3	3.416996171E-3
2.86	-9.223620331E-2	-2.603714868E-3	3.616372499E-3
2.87	-8.924172696E-2	1.891255179E-3	2.891483945E-3
2.88	-8.240550134E-2	2.467103630E-3	3.404978039E-3
2.89	-7.426092184E-2	1.184487090E-3	3.485070619E-3
2.9	-6.854625023E-2	1.342943759E-4	3.477975282E-3
2.91	-6.411566549E-2	1.208925369E-3	4.589589368E-3
2.92	-6.150569437E-2	2.910066221E-3	4.538975103E-3
2.93	-5.968575352E-2	2.516750718E-3	4.558629097E-3
2.94	-5.677314970E-2	-2.486775054E-4	5.726455226E-3
2.95	-5.401612497E-2	-2.230985269E-3	5.634881410E-3
2.96	-5.289602435E-2	-2.599500820E-3	5.437222872E-3
2.97	-5.428658355E-2	-3.719546579E-3	5.795854335E-3
2.98	-5.459127870E-2	-4.883629721E-3	4.593354616E-3
2.99	-5.656470692E-2	-6.345756754E-3	3.688508425E-3
3.0	-5.735166484E-2	-4.291353897E-3	2.206333704E-3
3.0100000000000002	-6.067128418E-2	-3.505921750E-3	1.534725329E-3
3.02	-6.311447656E-2	-1.424426541E-3	1.460744295E-3
3.0300000000000002	-6.315393365E-2	3.612207666E-3	9.534658525E-4
3.04	-6.239997471E-2	6.129571807E-3	-1.666477649E-3
3.0500000000000003	-6.010466768E-2	2.649657999E-3	-4.297153735E-3
3.06	-5.704627713E-2	1.762996764E-3	1.083059596E-3
3.0700000000000003	-5.469909309E-2	5.193378225E-3	3.742219362E-3
3.08	-5.143326080E-2	7.622782484E-3	7.230772112E-4
3.09	-4.629013276E-2	5.427395299E-3	-1.794451323E-3
3.1	-4.075408526E-2	1.866390982E-3	-4.159909776E-3
3.11	-3.270932561E-2	-2.680153702E-4	-5.966096006E-3
3.12	-2.494358833E-2	-1.714152229E-3	-5.289375017E-3
3.13	-1.926434901E-2	-3.718909793E-3	-5.041622195E-3
3.14	-1.134426289E-2	-9.000579452E-3	-4.831078601E-3
3.15	-4.567535164E-3	-8.152074090E-3	-3.377587019E-3
3.16	1.852811513E-3	-4.942297593E-3	-3.766016887E-3
3.17	9.177574528E-3	-6.450436857E-3	-4.752622348E-3
3.18	1.454520014E-2	-5.082787756E-3	-3.947871018E-3
3.19	1.923299948E-2	8.398757146E-4	-5.523545133E-3
3.2	2.310181481E-2	4.949361676E-3	-4.816159359E-3
3.21	2.727812970E-2	7.178227201E-3	-4.181192961E-3
3.22	3.143082344E-2	6.514745846E-3	-4.341944304E-3
3.23	3.419752659E-2	6.353373037E-3	-4.548316600E-3
3.24	3.556840701E-2	7.340690040E-3	-4.726791041E-3
3.25	3.689584032E-2	6.416715487E-3	-3.930000747E-3
3.2600000000000002	3.809674505E-2	2.805939603E-3	-2.720486869E-3
3.27	3.829969251E-2	-5.728570669E-4	-3.149717894E-3
3.2800000000000002	3.894133890E-2	-3.091939792E-3	-2.672880736E-3
3.29	3.830101417E-2	-4.829972925E-3	-1.101997821E-3
3.3000000000000003	3.586881799E-2	-4.644512827E-3	-2.155783463E-3
3.31	3.547606730E-2	-4.376764998E-3	-2.337282744E-3
3.3200000000000003	3.569928891E-2	-3.326862294E-3	-4.737904699E-3
3.33	3.432831377E-2	-4.683525008E-3	-3.703076875E-3
3.34	3.379051898E-2	-3.353816495E-3	-2.575584571E-3
3.35	3.198992207E-2	-1.040158171E-4	-1.545147289E-3
3.36	3.193111682E-2	3.875186786E-3	-3.624902632E-4
3.37	3.428088212E-2	5.950672075E-3	-6.851061842E-5
3.38	3.479859650E-2	7.755027502E-3	-1.170971459E-4
3.39	3.651009997E-2	7.382142596E-3	1.202911918E-3
3.4	3.916275406E-2	7.149496794E-3	2.589570436E-3
3.41	4.122502410E-2	9.256202661E-3	2.640344057E-3
3.42	4.678346324E-2	6.196739293E-3	2.513991393E-3
3.43	5.520690699E-2	-1.817671640E-3	2.757797133E-3
3.44	6.304587193E-2	-6.871829052E-3	3.295579924E-3
3.45	7.002097332E-2	-7.694221729E-3	3.798728079E-3
3.46	7.634125912E-2	-5.682084367E-3	3.462392244E-3
3.47	8.318963611E-2	-5.648565695E-3	3.117638979E-3
3.48	9.182504380E-2	-7.966152236E-3	4.915219698E-3
3.49	9.844887706E-2	-7.439308988E-3	2.807905576E-3
3.5	1.040673609E-1	-2.229926314E-3	3.120833286E-3
3.5100000000000002	1.091270602E-1	5.823425146E-4	4.499315264E-3
3.52	1.129987742E-1	1.041197351E-3	3.652043934E-3
3.5300000000000002	1.158953217E-1	1.191367993E-3	3.122110652E-3
3.54	1.166939008E-1	3.632853233E-3	2.954381982E-3
3.5500000000000003	1.145128843E-1	6.860277251E-3	2.876359377E-3
3.56	1.095513221E-1	7.848029107E-3	3.494817171E-3
3.5700000000000003	1.040403137E-1	7.519059934E-3	4.068803130E-3
3.58	9.851689156E-2	6.806425220E-3	3.924241191E-3
3.59	9.388575032E-2	4.038725665E-3	3.811949089E-3
3.6	8.819159829E-2	-1.106284961E-3	4.396230135E-3
3.61	8.260832393E-2	-6.427158818E-3	4.003507051E-3
3.62	7.495166623E-2	-8.378911421E-3	4.972726259E-3
3.63	6.912992561E-2	-9.374900564E-3	3.204900179E-3
3.64	6.264134337E-2	-1.176602846E-2	3.494252031E-3
3.65	5.627992563E-2	-1.024614835E-2	2.873496346E-3
3.66	4.980797381E-2	-6.542550556E-3	3.301039541E-3
3.67	4.422758815E-2	8.190548415E-4	2.126395914E-3
3.68	3.849237883E-2	6.280688763E-3	1.141396913E-3
3.69	3.651610875E-2	7.292191133E-3	-2.922616865E-4
3.7	3.535525862E-2	8.727392814E-3	1.572400484E-3
3.71	3.424715210E-2	8.163085864E-3	1.771470461E-3
3.72	3.541593512E-2	5.455517960E-3	-1.259045610E-3
3.73	3.511032527E-2	7.042780673E-3	-2.535937119E-3
3.74	3.161125266E-2	1.023744215E-2	-3.295884993E-4
3.75	3.563810909E-2	-1.595277890E-3	1.410771761E-3
3.7600000000000002	3.238185925E-2	-1.348550096E-4	-1.215189543E-3
3.77	3.211813659E-2	3.017992006E-3	-3.133214309E-3
3.7800000000000002	3.479803169E-2	-4.140216514E-3	-3.312223997E-3
3.79	3.294225800E-2	-7.357079193E-3	-1.719281771E-3
3.8000000000000003	3.740511052E-2	-9.947321472E-3	-3.357490400E-3
3.81	3.702348971E-2	-8.804313943E-3	-1.665342894E-3
3.8200000000000003	3.717748189E-2	-6.550700471E-3	-2.875269499E-3
3.83	3.500991288E-2	-5.718724225E-3	-4.289727221E-3
3.84	3.273282904E-2	-1.556180644E-3	-4.334620391E-3
3.85	3.012425804E-2	5.549657872E-3	-4.127730041E-3
3.86	2.752456661E-2	8.513919681E-3	-4.350041501E-3
3.87	2.525550806E-2	7.278975219E-3	-4.445551481E-3
3.88	2.113829686E-2	7.363076348E-3	-4.037554602E-3
3.89	1.610994994E-2	8.631152142E-3	-3.980644957E-3
3.9	1.482540721E-2	5.211917058E-3	-4.216440764E-3
3.91	1.201787048E-2	7.537220867E-4	-4.490336027E-3
3.92	6.792765273E-3	-3.809434876E-3	-4.626120177E-3
3.93	9.323839740E-4	-5.523593022E-3	-2.655938299E-3
3.94	-6.639804854E-3	-4.761552036E-3	-2.026259433E-3
3.95	-1.473512983E-2	-2.865545854E-3	-2.262610045E-3
3.96	-2.052188724E-2	-4.497148683E-3	-2.989003756E-3
3.97	-2.537811827E-2	-4.856804180E-3	-2.033648903E-3
3.98	-3.483399899E-2	-1.505295268E-3	-1.852712582E-3
3.99	-3.996914031E-2	-6.312640272E-3	-1.449805878E-2
4.0	-4.459676421E-2	-1.272538409E-3	-2.273321017E-2
4.01	-5.043152905E-2	5.337756321E-3	-1.633764133E-2
4.0200000000000005	-5.002066253E-2	-1.141329705E-3	-8.512959725E-3
4.03	-5.420016463E-2	-1.097343919E-3	-6.902840926E-3
4.04	-6.152722033E-2	6.677282025E-3	-2.258690561E-3
4.05	-6.367366237E-2	8.692652879E-3	5.233603366E-3
4.0600000000000005	-6.544987953E-2	5.876355961E-3	3.914319429E-3
4.07	-6.673986948E-2	9.464977130E-3	-7.907853987E-4
4.08	-6.206505982E-2	4.325112234E-3	4.473785344E-5
4.09	-5.957222836E-2	-2.042493940E-3	2.685067367E-3
4.1	-5.492132938E-2	-6.111124560E-3	3.293973360E-3
4.11	-5.386953257E-2	-6.832813184E-3	3.242828159E-3
4.12	-5.282745262E-2	-3.931040617E-3	6.888895877E-3
4.13	-5.039647555E-2	-7.910032377E-3	4.937421236E-3
4.14	-5.322029090E-2	-8.101376399E-3	5.741349611E-3
4.15	-5.680587975E-2	-2.565364482E-3	6.537253700E-3
4.16	-5.907334985E-2	1.320134901E-3	6.825869048E-3
4.17	-6.140688274E-2	-4.386038575E-4	7.816678438E-3
4.18	-6.331459307E-2	-3.632232745E-3	7.042251727E-3
4.19	-6.622598207E-2	-2.769776389E-3	5.671426210E-3
4.2	-7.135493314E-2	5.719542951E-4	5.909882936E-3
4.21	-7.662349504E-2	4.292554258E-4	5.560944336E-3
4.22	-8.252353215E-2	-3.471769415E-4	4.644257735E-3
4.23	-8.886561283E-2	6.764894174E-4	4.244669037E-3
4.24	-9.449829508E-2	3.596946697E-3	2.907788466E-3
4.25	-1.011562351E-1	6.218056351E-3	4.639417085E-3
4.26	-1.046603922E-1	5.591209681E-4	4.440194521E-3
4.2700000000000005	-1.048327688E-1	-1.757508919E-3	4.124242220E-3
4.28	-1.040004113E-1	-1.882360781E-3	4.038058319E-3
4.29	-1.010728464E-1	-3.767377399E-3	4.112717819E-3
4.3	-9.816656906E-2	-5.902834639E-3	5.117806025E-3
4.3100000000000005	-9.605397430E-2	-5.447855225E-3	5.721717974E-3
4.32	-9.363786852E-2	-2.451252147E-3	5.532952699E-3
4.33	-9.083224452E-2	-5.217168777E-4	6.859761629E-3
4.34	-8.729813378E-2	-5.335216880E-4	7.553266528E-3
4.3500000000000005	-8.305919470E-2	-6.106603247E-4	6.993887389E-3
4.36	-7.849923408E-2	2.295682746E-6	6.094230772E-3
4.37	-7.389851524E-2	9.704504728E-4	5.522757419E-3
4.38	-6.890174306E-2	5.024268181E-4	5.652085695E-3
4.39	-6.191967523E-2	-2.405474886E-3	3.439637575E-3
4.4	-5.773749858E-2	-3.110120452E-3	2.496618038E-3
4.41	-5.277511419E-2	-1.682708266E-3	1.473911024E-3
4.42	-5.057345665E-2	3.149125428E-4	1.527959261E-3
4.43	-4.811706535E-2	6.979849720E-4	-4.650081329E-4
4.44	-4.180844155E-2	2.577468562E-3	1.787735125E-3
4.45	-3.595618522E-2	9.230396600E-4	2.331048403E-3
4.46	-2.921200550E-2	-1.639522120E-3	-8.728464689E-3
4.47	-2.390397711E-2	-8.727768072E-5	-5.872534597E-3
4.48	-1.947571042E-2	2.772543248E-3	-3.320648455E-3
4.49	-1.672370067E-2	2.969745282E-3	-1.263109911E-3
4.5	-1.377873922E-2	1.684698327E-3	-8.049198559E-4
4.51	-1.112582287E-2	1.943736270E-3	-5.234514143E-4
4.5200000000000005	-9.971626462E-3	3.316284463E-3	3.710188005E-4
4.53	-7.967378103E-3	2.303708274E-3	-2.422806137E-3
4.54	-4.805987605E-3	-5.786332275E-4	-5.300467301E-3
4.55	-1.320873150E-3	-3.701409732E-3	-4.388431335E-3
4.5600000000000005	5.280822063E-4	-5.511918125E-3	-4.356166097E-3
4.57	8.022811400E-4	-2.556214139E-3	-5.184477415E-3
4.58	3.256816803E-3	-4.394960806E-3	-4.086035338E-3
4.59	2.117177113E-3	-3.853871331E-3	-3.912657347E-3
4.6000000000000005	3.402597268E-3	-1.339781263E-3	-3.641201606E-3
4.61	3.135150783E-3	2.601905298E-3	-3.264279276E-3
4.62	2.020640184E-3	3.724528042E-3	-3.574505627E-3
4.63	1.873855334E-3	4.104505838E-3	-4.305772943E-3
4.64	2.099690062E-3	4.856731285E-3	-4.449784383E-3
4.65	3.241987693E-3	4.465460579E-3	-3.745064646E-3
4.66	5.341304629E-3	1.687460438E-3	-3.151491728E-3
4.67	7.844681530E-3	-1.305866346E-3	-3.463629332E-3
4.68	9.782334454E-3	-3.889585878E-4	-3.237995169E-3
4.69	1.231178908E-2	5.073259905E-4	-2.255643203E-3
4.7	1.632768003E-2	-1.534794416E-3	-1.947803330E-3
4.71	1.912115055E-2	-4.041325350E-3	-5.251499047E-5
4.72	2.382205093E-2	-2.211448952E-3	2.676786516E-4
4.73	2.956430578E-2	-2.932150214E-4	3.486424837E-3
4.74	3.315465116E-2	2.469170542E-4	2.475561235E-4
4.75	3.758599306E-2	-3.026259969E-4	-2.746086424E-3
4.76	4.415662808E-2	7.515954903E-5	-8.451207419E-4
4.7700000000000005	5.003671930E-2	1.586227839E-3	-1.572418281E-3
4.78	5.470873715E-2	3.205344408E-3	-2.473231527E-3
4.79	5.881895745E-2	4.769851908E-3	-1.424196806E-3
4.8	6.280980670E-2	7.183973312E-3	8.809103105E-4
4.8100000000000005	6.708705235E-2	6.971325558E-3	2.276021395E-3
4.82	7.190604883E-2	4.189366084E-3	3.105509245E-3
4.83	7.634228591E-2	3.316430580E-3	2.958949684E-3
4.84	8.019555395E-2	2.926904716E-3	2.394530051E-3
4.8500000000000005	8.431931817E-2	-2.101315662E-3	3.543416414E-3
4.86	8.684146011E-2	-4.832812950E-3	3.469315920E-3
4.87	8.952060044E-2	-6.431590826E-3	3.558732117E-3
4.88	8.985997093E-2	-6.964697533E-3	4.387750309E-3
4.89	8.899509871E-2	-4.723444983E-3	3.897267732E-3
4.9	8.588133441E-2	-2.792004300E-3	4.329505899E-3
4.91	8.382675775E-2	5.769642145E-4	4.418496924E-3
4.92	8.266693318E-2	1.006166533E-3	3.556672487E-3
4.93	8.233269894E-2	1.062861577E-3	3.318597231E-3
4.94	8.213948616E-2	3.396468423E-4	4.122151200E-3
4.95	7.959497410E-2	1.110715064E-3	3.605845943E-3
4.96	7.664778881E-2	1.319626151E-3	2.752720800E-3
4.97	7.364923303E-2	1.283349745E-3	2.873458199E-3
4.98	7.033621991E-2	1.862716273E-3	3.452683840E-3
4.99	6.722298825E-2	2.801242963E-3	3.888036165E-3
5.0	6.421040062E-2	2.851312178E-3	5.008569107E-3
5.01	6.138015805E-2	2.133871566E-3	5.501504536E-3
5.0200000000000005	6.065212151E-2	8.800984282E-4	4.007046243E-3
5.03	6.147059794E-2	-4.114108582E-3	3.404895722E-3
5.04	6.146656239E-2	-6.911746070E-3	4.476624880E-3
5.05	6.187328682E-2	-6.763246616E-3	3.333063410E-3
5.0600000000000005	6.201693750E-2	-6.839435707E-3	2.455527998E-3
5.07	6.251081908E-2	-5.625580653E-3	3.620644960E-3
5.08	6.215609157E-2	-1.595468923E-3	3.194905672E-3
5.09	6.112573575E-2	2.879522799E-3	9.767743592E-4
5.1000000000000005	6.162449337E-2	6.284509452E-3	1.414874622E-4
5.11	6.040226009E-2	9.655491564E-3	1.972039472E-3
5.12	6.086338302E-2	7.872918905E-3	3.043200181E-3
5.13	6.259049737E-2	4.874430940E-3	1.231423769E-3
5.14	6.154222214E-2	7.203510001E-3	-6.689821150E-4
5.15	5.909315923E-2	5.879581492E-3	-3.424009371E-4
5.16	5.641605592E-2	-8.145051041E-4	-1.213653625E-3
5.17	5.167211508E-2	-1.969381774E-4	-2.222940725E-3
5.18	4.709288630E-2	4.360861596E-3	-1.829426073E-3
5.19	4.514768684E-2	-1.989266679E-3	-1.026171293E-3
5.2	3.790953719E-2	-5.067252025E-3	-1.112383452E-3
5.21	3.386333549E-2	-5.789344415E-3	-1.586454954E-3
5.22	3.032298737E-2	-4.013024452E-3	-3.128157790E-3
5.23	2.436237553E-2	-1.825443171E-3	-4.662958106E-3
5.24	2.086834103E-2	-4.303909394E-3	-5.299113778E-3
5.25	1.749268993E-2	-4.359184059E-3	-4.010948041E-3
5.26	1.263959759E-2	8.169284911E-4	-3.757513609E-3
5.2700000000000005	8.405499397E-3	4.720435038E-3	-3.533209410E-3
5.28	3.707955088E-3	5.304464296E-3	-3.528524397E-3
5.29	-8.988923056E-4	5.671069490E-3	-3.813947036E-3
5.3	-3.500790884E-3	5.898971338E-3	-4.431166541E-3
5.3100000000000005	-5.504328277E-3	5.431185543E-3	-4.768438501E-3
5.32	-9.294546009E-3	3.948544905E-3	-3.257826414E-3
5.33	-1.194627479E-2	1.762828180E-4	-1.606619532E-3
5.34	-1.389089385E-2	-3.751800503E-3	-1.883357359E-3
5.3500000000000005	-1.618984676E-2	-4.045406386E-3	-3.306406584E-3
5.36	-1.733523345E-2	-3.933358595E-3	-3.070753660E-3
5.37	-2.042251269E-2	-5.103384526E-3	-3.328175083E-3
5.38	-2.385291524E-2	-4.797862025E-3	-4.858024658E-3
5.39	-2.385340011E-2	-2.377894625E-3	-5.960138884E-3
5.4	-2.533971942E-2	4.579900653E-4	-5.062101927E-3
5.41	-2.705494674E-2	-3.401550179E-3	-1.919382658E-3
5.42	-2.484992074E-2	-5.254241646E-3	-1.135006218E-2
5.43	-2.912086458E-2	3.747304973E-3	-1.948422601E-2
5.44	-3.065877357E-2	3.395963848E-3	-1.407758026E-2
5.45	-2.902640796E-2	-3.232144520E-3	-2.423285094E-3
5.46	-3.221625066E-2	1.874975458E-3	9.868063066E-4
5.47	-3.398119078E-2	6.720708709E-3	-4.358410609E-3
5.48	-3.403129761E-2	4.208640572E-3	-4.929060344E-3
5.49	-3.824520975E-2	4.935875850E-3	-1.408945552E-3
5.5	-3.878133223E-2	5.336032366E-3	-2.823501046E-3
5.51	-3.827970958E-2	1.428695366E-3	-4.231566038E-3
5.5200000000000005	-3.907706667E-2	-4.156593194E-3	9.665541227E-5
5.53	-3.978785428E-2	-8.530084736E-3	4.214691703E-3
5.54	-4.457569337E-2	-2.926261827E-3	5.222474489E-3
5.55	-5.044359422E-2	-6.975475996E-4	1.837102327E-3
5.5600000000000005	-5.615350916E-2	-4.898298483E-3	4.945746695E-3
5.57	-6.364064673E-2	-3.693978906E-3	6.676316853E-3
5.58	-7.033299884E-2	-2.577806672E-4	4.692808719E-3
5.59	-7.826559152E-2	1.360991670E-3	5.626984761E-3
5.6000000000000005	-8.671584163E-2	3.281747407E-4	8.103482410E-3
5.61	-9.307182430E-2	-2.536848387E-3	6.876868898E-3
5.62	-9.779407324E-2	-3.855786443E-3	4.580851444E-3
5.63	-1.033014420E-1	-1.557353541E-3	7.143765840E-3
5.64	-1.084941987E-1	-4.062443579E-4	4.697744278E-3
5.65	-1.125442318E-1	-2.041969137E-3	3.150133172E-3
5.66	-1.142306096E-1	-1.062563059E-3	3.707776178E-3
5.67	-1.132225566E-1	1.424088437E-3	3.771055462E-3
5.68	-1.100354675E-1	1.156139419E-3	3.176843080E-3
5.69	-1.049300710E-1	-2.347962110E-4	3.402463350E-3
5.7	-9.835806878E-2	-6.682347527E-4	3.673825372E-3
5.71	-9.119937117E-2	-5.642173658E-4	3.989789199E-3
5.72	-8.388966623E-2	-6.993301924E-4	4.688533667E-3
5.73	-7.656203607E-2	-2.022332277E-3	5.360558499E-3
5.74	-6.965754426E-2	-3.682828948E-3	5.765878114E-3
5.75	-6.324376381E-2	-2.700248316E-3	5.816632662E-3
5.76	-5.756621676E-2	-1.330222312E-4	6.535288660E-3
5.7700000000000005	-5.125572906E-2	-1.455789266E-3	6.744502559E-3
5.78	-4.476608074E-2	-2.747750685E-3	6.249314699E-3
5.79	-4.117371321E-2	-2.681539490E-3	5.207007540E-3
5.8	-3.762470783E-2	-2.167839151E-3	3.668060643E-3
5.8100000000000005	-3.625306404E-2	-2.252437279E-3	3.579656038E-3
5.82	-3.580563641E-2	-2.615206942E-3	4.262257967E-3
5.83	-3.584335942E-2	-2.121308977E-3	2.174079497E-3
5.84	-3.799555894E-2	2.087501376E-4	-4.067063262E-4
5.8500000000000005	-3.945879788E-2	3.081753836E-3	-4.613860869E-4
5.86	-4.139214097E-2	3.717794228E-3	-3.263925914E-3
5.87	-4.297330237E-2	1.914814159E-3	-6.957090941E-3
5.88	-4.328206039E-2	9.985049517E-4	-3.983877745E-3
5.89	-4.369809053E-2	3.811795239E-3	2.011698195E-3
5.9	-4.337274666E-2	4.594535739E-3	1.477904409E-3
5.91	-4.222011804E-2	1.104490958E-3	-9.993412560E-4
5.92	-4.091660903E-2	-1.350947911E-3	-2.193794914E-3
5.93	-3.816574550E-2	-1.384012803E-3	-2.194517698E-3
5.94	-3.465967810E-2	-1.160872385E-3	-4.751604643E-3
5.95	-2.901414967E-2	-4.591285095E-3	-4.393404570E-3
5.96	-2.553055547E-2	-6.684469236E-3	-1.597466949E-3
5.97	-2.062188156E-2	-5.002382612E-3	-1.679572718E-3
5.98	-1.668849090E-2	-3.931502131E-3	-1.440000014E-3
5.99	-1.273312376E-2	-3.121004146E-3	-1.621523065E-3
6.0	-9.304889054E-3	-1.374053463E-3	-3.027723875E-3
6.01	-6.162930322E-3	8.960330934E-4	-3.718565550E-3
6.0200000000000005	-2.123362347E-3	3.641895244E-3	-4.222170580E-3
6.03	2.538778250E-3	5.301878772E-3	-4.423060829E-3
6.04	7.684517780E-3	4.898053410E-3	-3.753300723E-3
6.05	1.283272638E-2	4.042367329E-3	-3.620175473E-3
6.0600000000000005	1.713246041E-2	4.518173680E-3	-4.845446196E-3
6.07	2.160961830E-2	3.244840846E-3	-5.008257475E-3
6.08	2.437794312E-2	1.539384300E-3	-3.774194433E-3
6.09	2.819633260E-2	-6.897945254E-4	-1.837582499E-3
6.1000000000000005	3.139156067E-2	-1.323678002E-3	-8.174119856E-4
6.11	3.356513750E-2	-2.576974966E-4	1.420449554E-3
6.12	3.628409861E-2	-2.174815389E-3	3.250156131E-5
6.13	3.861132169E-2	-3.358749851E-3	4.597677324E-4
6.140000000000001	4.109094763E-2	-3.312590226E-3	-9.828935530E-4
6.15	4.364177306E-2	-1.307564235E-3	-2.975024774E-3
6.16	4.533885829E-2	-8.244450380E-5	-2.092634162E-3
6.17	4.637082018E-2	2.486196498E-4	-1.534154748E-3
6.18	4.661029385E-2	2.034846495E-3	-9.351225007E-4
6.19	4.714463794E-2	4.925187424E-3	6.413473223E-4
6.2	4.769721949E-2	5.779438585E-3	1.348477754E-3
6.21	4.769090511E-2	4.316208634E-3	-4.554478423E-4
6.22	4.838619736E-2	4.532548344E-3	-1.049690910E-3
6.23	4.805026151E-2	5.885102621E-3	4.677077187E-4
6.24	4.770902830E-2	3.945732146E-3	8.283789176E-4
6.25	4.861065709E-2	7.956687064E-4	2.067071352E-3
6.26	4.970720374E-2	-1.300694451E-3	2.120667848E-3
6.2700000000000005	5.116766655E-2	3.015052230E-4	2.492314729E-3
6.28	5.368553747E-2	-1.709387716E-3	2.871618085E-3
6.29	5.668753400E-2	-5.884497725E-3	3.322373781E-3
6.3	5.883810028E-2	-4.554066317E-3	3.738000589E-3
6.3100000000000005	6.308867732E-2	-2.814556057E-3	4.250606074E-3
6.32	6.699123585E-2	-2.972613379E-3	3.351746950E-3
6.33	7.015234792E-2	-3.166065022E-3	3.258668337E-3
6.34	7.418300694E-2	-1.898181289E-3	4.208183220E-3
6.3500000000000005	7.863809594E-2	4.343502515E-4	3.935083429E-3
6.36	8.296225425E-2	1.880968613E-3	3.425990142E-3
6.37	8.712394923E-2	9.993213785E-4	3.632497626E-3
6.38	9.055975282E-2	3.752463014E-4	3.155194673E-3
6.390000000000001	9.185243094E-2	3.319731549E-3	1.321851167E-3
6.4	9.179845350E-2	5.052854730E-3	2.074000208E-3
6.41	9.140249625E-2	2.900952022E-3	3.350350557E-3
6.42	8.968010591E-2	9.003675571E-4	3.554389945E-3
6.43	8.726317783E-2	1.953738793E-3	4.379148355E-3
6.44	8.409918134E-2	1.118760122E-3	4.516110008E-3
6.45	8.086343014E-2	-1.583594039E-3	3.484479341E-3
6.46	7.782815420E-2	-4.286359951E-3	4.228383455E-3
6.47	7.512226091E-2	-4.928744021E-3	3.819903553E-3
6.48	7.099964865E-2	-4.861563297E-3	4.235713697E-3
6.49	6.662111887E-2	-5.748128686E-3	3.910654494E-3
6.5	6.135392724E-2	-3.665964268E-3	3.758367578E-3
6.51	5.605631523E-2	-2.437223046E-4	3.122155392E-3
6.5200000000000005	5.159819931E-2	1.775607261E-3	2.270314407E-3
6.53	4.687553489E-2	3.956397817E-3	2.362080965E-3
6.54	4.275195026E-2	3.834964082E-3	-1.159380522E-3
6.55	4.069122110E-2	3.477876142E-3	1.852832260E-3
6.5600000000000005	3.614831088E-2	6.504264274E-3	2.173350401E-3
6.57	3.311155403E-2	1.042802070E-2	-4.169329664E-5
6.58	3.418321022E-2	-2.099862352E-3	-8.049959969E-5
6.59	3.084780027E-2	1.189506452E-3	-2.179453606E-4
6.6000000000000005	2.972136521E-2	3.394430772E-3	-2.211626616E-3
6.61	2.848384940E-2	-1.453157470E-3	-8.551202681E-4
6.62	2.732169971E-2	-4.655497859E-3	-1.274741206E-3
6.63	2.753929360E-2	-5.476101741E-3	-2.105878188E-3
6.640000000000001	2.690546499E-2	-4.642787481E-3	-1.896625163E-3
6.65	2.619499453E-2	-2.912118665E-3	-1.981630487E-3
6.66	2.488526904E-2	-2.493964538E-3	-2.395723906E-3
6.67	2.201624775E-2	-2.064540192E-3	-3.137930479E-3
6.68	2.008422378E-2	1.649179153E-3	-4.205952486E-3
6.69	1.974661149E-2	3.809458582E-3	-4.237356972E-3
6.7	1.961913435E-2	2.775726737E-3	-4.640479215E-3
6.71	1.712534305E-2	2.990067309E-3	-4.223670619E-3
6.72	1.437932068E-2	5.055431619E-3	-4.243105498E-3
6.73	1.292747670E-2	4.811223194E-3	-2.719324675E-3
6.74	1.218910479E-2	2.507043973E-3	-2.909964171E-3
6.75	9.439496907E-3	-5.963138015E-4	-3.739401803E-3
6.76	5.461418019E-3	-1.132848461E-3	-3.065680113E-3
6.7700000000000005	3.092568680E-3	-1.451582284E-3	-2.239316844E-3
6.78	-1.433644934E-3	-2.197184680E-3	-1.938492763E-3
6.79	-5.335213585E-3	-4.139610967E-3	-3.047522907E-3
6.8	-9.597531859E-3	-3.666565135E-3	-3.372479368E-3
6.8100000000000005	-1.369256870E-2	-2.185632220E-3	-2.084217735E-3
6.82	-1.636517424E-2	-2.311532675E-3	-6.535342394E-4
6.83	-2.045385190E-2	-1.246043407E-3	-1.513796969E-3
6.84	-2.686728993E-2	1.691763998E-3	-8.713049229E-4
6.8500000000000005	-2.590414978E-2	-4.725588288E-3	-3.907228595E-3
6.86	-3.459423277E-2	6.608810297E-3	-1.248408534E-2
6.87	-4.139470207E-2	8.683788494E-3	-1.063961224E-2
6.88	-4.037228165E-2	-1.272609040E-3	-3.614420299E-3
6.890000000000001	-4.546806193E-2	8.152051718E-4	-3.820723143E-3
6.9	-4.862515128E-2	4.176472321E-3	-1.879690733E-3
6.91	-4.887708506E-2	-1.468040010E-3	2.265802951E-3
6.92	-5.342845288E-2	-7.221236299E-4	2.951034083E-3
6.93	-5.652599503E-2	2.187427108E-3	3.390106086E-3
6.94	-5.599215343E-2	9.289219750E-5	5.325498420E-3
6.95	-5.757668458E-2	-1.102586354E-3	5.802435880E-3
6.96	-5.693399274E-2	-4.182420459E-3	1.969012121E-3
6.97	-5.608120257E-2	-8.244814631E-3	8.086300740E-3
6.98	-6.047376518E-2	2.297947044E-3	1.006538626E-2
6.99	-6.066562606E-2	1.458347867E-3	5.053259934E-3
7.0	-6.253232747E-2	-1.375131758E-3	4.881458623E-3
7.01	-6.462710315E-2	-1.568692309E-4	6.376577238E-3
7.0200000000000005	-6.706373226E-2	1.982194473E-3	5.871171790E-3
7.03	-6.986346522E-2	1.062960103E-3	4.090273091E-3
7.04	-7.167069569E-2	-2.271370400E-3	3.044164373E-3
7.05	-7.248337462E-2	-4.095409272E-3	3.083221375E-3
7.0600000000000005	-7.509390748E-2	-2.865545854E-3	3.221112642E-3
7.07	-7.648337563E-2	-4.990096604E-4	2.712203770E-3
7.08	-8.014262329E-2	-3.117414817E-3	2.789509763E-3
7.09	-8.300196785E-2	-3.708197836E-3	2.378154027E-3
7.1000000000000005	-8.516535726E-2	4.905408755E-4	2.795317137E-3
7.11	-8.551654256E-2	2.484059230E-3	3.139726076E-3
7.12	-8.364427722E-2	3.355981858E-4	3.456136141E-3
7.13	-8.190766719E-2	-2.478489880E-4	3.683256152E-3
7.140000000000001	-7.958638158E-2	-8.319345531E-4	3.944111211E-3
7.15	-7.686876897E-2	-1.131243578E-3	4.074449824E-3
7.16	-7.461720195E-2	-7.435463862E-4	4.094531751E-3
7.17	-7.198719776E-2	-2.903661236E-3	4.361878786E-3
7.18	-6.907623446E-2	-3.400313660E-3	4.221078310E-3
7.19	-6.721801978E-2	-8.267960406E-4	4.884310054E-3
7.2	-6.641243701E-2	-1.055528234E-3	4.185854600E-3
7.21	-6.423093712E-2	-3.537837073E-3	6.690865907E-3
7.22	-6.450807959E-2	-3.249350592E-3	4.478435683E-3
7.23	-6.214547770E-2	-2.117263732E-3	3.626478435E-3
7.24	-6.036229169E-2	-1.791409656E-3	4.914456758E-3
7.25	-5.979419625E-2	-1.585508391E-3	3.239461336E-3
7.26	-5.800313154E-2	-1.128477941E-3	3.269375627E-3
7.2700000000000005	-5.605415951E-2	1.945272066E-4	1.306691761E-3
7.28	-5.234718690E-2	1.952262897E-3	2.256675319E-4
7.29	-4.863861926E-2	1.509745550E-3	-1.051434628E-3
7.3	-4.537439919E-2	2.802448423E-4	-3.798082915E-3
7.3100000000000005	-4.165591753E-2	9.896941931E-4	-3.362539854E-3
7.32	-3.820492768E-2	3.738538215E-3	1.074918043E-3
7.33	-3.433661852E-2	5.865538711E-3	1.217034186E-3
7.34	-2.929692093E-2	3.377339226E-3	2.386865744E-4
7.3500000000000005	-2.398138663E-2	-1.563811214E-5	2.699775086E-4
7.36	-2.056357598E-2	8.416372986E-4	-5.809007551E-4
7.37	-1.660705204E-2	-3.044414602E-5	-3.193356147E-3
7.38	-1.347478189E-2	-2.499791143E-3	-3.926834970E-3
7.390000000000001	-8.803639175E-3	-6.109017834E-3	-4.385164824E-3
7.4	-4.710511868E-3	-5.868639156E-3	-2.765730467E-3
7.41	-3.004132961E-3	-3.844956775E-3	-3.100043236E-3
7.42	2.472196969E-4	-3.404880490E-3	-2.923124876E-3
7.43	3.022078714E-3	-1.907615987E-3	-2.835810694E-3
7.44	4.738328882E-3	-2.635414888E-5	-2.607130413E-3
7.45	6.107066213E-3	1.892596230E-3	-3.272913542E-3
7.46	7.033334463E-3	4.327403203E-3	-4.566572752E-3
7.47	7.964479252E-3	5.107879669E-3	-4.053706956E-3
7.48	9.744256752E-3	4.000481043E-3	-3.500594752E-3
7.49	1.165199928E-2	3.282622812E-3	-3.212028148E-3
7.5	1.296618702E-2	2.952617436E-3	-3.173449326E-3
7.51	1.360168421E-2	6.146672816E-4	-2.566069212E-3
7.5200000000000005	1.388036871E-2	-5.762542774E-5	-3.291147795E-3
7.53	1.391867512E-2	6.687377403E-5	-3.055590239E-3
7.54	1.525895694E-2	-3.048487535E-4	-3.398818803E-3
7.55	1.741321308E-2	-3.096053720E-3	-2.396563139E-3
7.5600000000000005	1.874658076E-2	-4.081893406E-3	-3.286063887E-3
7.57	2.153629932E-2	-3.565105445E-3	-3.944185820E-3
7.58	2.451368832E-2	-3.557182059E-3	-3.278826323E-3
7.59	2.727832162E-2	-2.963228032E-3	-2.123488035E-3
7.6000000000000005	2.959065931E-2	-9.896255913E-4	-2.553304720E-4
7.61	3.147427184E-2	1.155433637E-3	3.353282921E-4
7.62	3.344788795E-2	3.096466624E-3	5.725753948E-4
7.63	3.587909060E-2	5.017467676E-3	1.509149792E-3
7.640000000000001	3.887200379E-2	6.745355398E-3	1.032258425E-3
7.65	4.296819532E-2	6.695364311E-3	-2.851472761E-4
7.66	4.707478713E-2	3.976847234E-3	-8.186341016E-4
7.67	5.185059650E-2	4.266908245E-3	-1.772254750E-4
7.68	5.484420025E-2	2.416064188E-3	1.092225466E-3
7.69	5.731289218E-2	2.041504921E-3	1.862134983E-3
7.7	6.304508619E-2	-2.499398678E-3	2.668145169E-3
7.71	6.686903560E-2	-3.264131352E-3	3.426972780E-3
7.72	6.929924333E-2	-1.294182047E-3	3.329698000E-3
7.73	7.326839265E-2	-3.472584134E-3	4.219955800E-3
7.74	7.667487680E-2	-3.974347783E-3	4.726859985E-3
7.75	7.946933053E-2	-2.076806641E-3	4.297429476E-3
7.76	8.193732201E-2	-1.161327137E-3	3.493703882E-3
7.7700000000000005	8.387093031E-2	-1.367157504E-3	2.666627321E-3
7.78	8.518046343E-2	1.293142588E-4	2.333356294E-3
7.79	8.586858931E-2	2.349830293E-3	3.259090073E-3
7.8	8.558737775E-2	2.893110347E-3	3.341764490E-3
7.8100000000000005	8.535968125E-2	3.015241784E-3	1.889082758E-3
7.82	8.441864279E-2	2.018324550E-3	2.039334487E-3
7.83	8.294925654E-2	1.771545008E-3	1.758653078E-3
7.84	7.912253123E-2	3.226432018E-3	3.533320133E-3
7.8500000000000005	7.652623377E-2	1.623434661E-3	2.146272268E-3
7.86	7.202679786E-2	-6.512255675E-4	2.370337777E-3
7.87	6.721186734E-2	-1.896512911E-3	2.673445739E-3
7.88	6.302528270E-2	-1.959043877E-3	2.149011049E-3
7.890000000000001	5.819297419E-2	-1.984608520E-3	2.586482415E-3
7.9	5.328547348E-2	-2.607091989E-3	4.206548329E-3
7.91	5.053617084E-2	-3.250340924E-3	4.349652681E-3
7.92	4.802877033E-2	-2.718445167E-3	3.873845491E-3
7.930000000000001	4.700835105E-2	-2.624113855E-3	3.245844596E-3
7.94	4.460533696E-2	-1.285068505E-3	3.710899694E-3
7.95	4.422064984E-2	7.085192652E-4	4.989987764E-3
7.96	4.295509164E-2	3.166803196E-3	3.002671774E-3
7.97	4.408288543E-2	1.798279518E-3	-3.055779916E-4
7.98	4.500687086E-2	1.886419338E-3	2.095427268E-3
7.99	4.474938962E-2	5.116753909E-3	2.200429153E-3
8.0	4.435970390E-2	6.216715843E-3	1.146139238E-4
8.01	4.539112592E-2	2.287351832E-3	9.891523454E-4
8.02	4.590769231E-2	2.745577070E-3	1.055908135E-3
8.03	4.655825598E-2	3.851677624E-3	-1.085634393E-3
8.040000000000001	4.798915652E-2	-1.724874507E-4	-2.417921205E-3
8.05	4.784673071E-2	-4.409980517E-3	-2.360103668E-3
8.06	4.564970100E-2	-3.145570263E-3	-2.249334898E-3
8.07	4.492128873E-2	-2.945223555E-3	-2.725885954E-3
8.08	4.193952390E-2	-2.953956637E-3	-2.124402744E-3
8.09	3.948929709E-2	-1.897035531E-3	-2.079969808E-3
8.1	3.574613297E-2	-2.201871976E-3	-2.683943358E-3
8.11	3.016746788E-2	2.763880019E-3	-4.159524774E-3
8.120000000000001	2.626392592E-2	3.044957908E-3	-3.350495450E-3
8.13	2.131963217E-2	1.521782324E-3	-3.567503538E-3
8.14	1.719394350E-2	1.158246294E-3	-2.450045195E-3
8.15	1.361419236E-2	2.400244683E-3	-2.171660127E-3
8.16	8.303048275E-3	1.512699164E-3	-2.931474044E-3
8.17	3.093372727E-3	1.934386001E-3	-3.575695954E-3
8.18	-2.407360408E-3	1.897333913E-3	-3.571247965E-3
8.19	-8.096104400E-3	2.315949352E-4	-3.248137083E-3
8.2	-1.315265840E-2	-5.178860872E-4	-2.719896879E-3
8.21	-1.731150406E-2	2.167685005E-4	-2.305471230E-3
8.22	-2.037078851E-2	-1.105226712E-3	-2.704300791E-3
8.23	-2.286832875E-2	-3.699109957E-3	-3.184069243E-3
8.24	-2.477717823E-2	-4.800059602E-3	-2.803667631E-3
8.25	-2.791944898E-2	-3.144430449E-3	-2.933001881E-3
8.26	-2.927237016E-2	-2.820382866E-3	-2.498398490E-3
8.27	-3.204903937E-2	-1.440516516E-3	-1.861303892E-3
8.28	-3.594975570E-2	2.882052059E-3	-1.483884338E-3
8.290000000000001	-3.544582190E-2	-1.269636525E-3	-3.014601317E-3
8.3	-3.363133999E-2	-6.897774719E-4	-1.203273027E-2
8.31	-3.846879593E-2	6.688600194E-3	-6.955672476E-3
8.32	-3.471483982E-2	6.523996295E-4	-5.299948302E-3
8.33	-3.203735566E-2	-2.542614594E-3	1.017877016E-3
8.34	-3.259491778E-2	2.542287007E-3	3.603993807E-3
8.35	-2.897296941E-2	6.591607641E-5	-9.980569746E-4
8.36	-2.864314413E-2	-2.880484566E-3	-2.945886519E-4
8.370000000000001	-3.041619456E-2	-1.813572197E-4	-5.975900557E-4
8.38	-3.045258618E-2	1.801999256E-3	2.587911043E-3
8.39	-3.247804512E-2	2.318309811E-3	6.294225695E-3
8.4	-3.358592562E-2	-2.071405534E-3	2.853235284E-3
8.41	-3.433527228E-2	-6.435506485E-3	1.727310159E-3
8.42	-3.882600277E-2	-1.987422378E-3	6.109345425E-3
8.43	-4.514481478E-2	4.562853912E-3	5.143338325E-3
8.44	-4.967132524E-2	-1.828134053E-3	2.038900431E-3
8.45	-5.621759614E-2	-5.728144366E-3	6.706243148E-3
8.46	-6.234719626E-2	-1.118029335E-3	4.431098475E-3
8.47	-7.090056111E-2	2.267363688E-3	2.630564539E-3
8.48	-7.838393956E-2	4.695939603E-4	3.906863704E-3
8.49	-8.385051768E-2	-2.759312054E-3	4.293893816E-3
8.5	-8.905114743E-2	-3.670519820E-3	3.377038393E-3
8.51	-9.379933036E-2	-2.174481854E-3	3.042947206E-3
8.52	-9.630520141E-2	-1.598724529E-3	3.253442201E-3
8.53	-9.782601351E-2	-4.148600607E-3	2.703293391E-3
8.540000000000001	-9.916077104E-2	-4.111205255E-3	2.879221404E-3
8.55	-9.967343983E-2	1.910767278E-4	3.606667862E-3
8.56	-9.841378900E-2	2.618638926E-3	2.626039946E-3
8.57	-9.315481222E-2	-1.214503154E-3	3.651029024E-3
8.58	-8.913350737E-2	1.511056319E-3	5.558759126E-3
8.59	-8.407504594E-2	6.232861132E-4	5.570298586E-3
8.6	-7.764320733E-2	2.526351306E-3	4.007685558E-3
8.61	-7.133029039E-2	6.587202589E-4	5.612806360E-3
8.620000000000001	-6.543557628E-2	-2.748070038E-3	5.938911370E-3
8.63	-5.928818808E-2	-2.701489418E-3	5.414093760E-3
8.64	-5.464972651E-2	-1.641245291E-3	4.810658846E-3
8.65	-5.017123020E-2	-2.823023304E-3	4.444428835E-3
8.66	-4.601972139E-2	-4.219421871E-3	4.371756026E-3
8.67	-4.272566828E-2	-3.291541662E-3	3.706236728E-3
8.68	-3.979641636E-2	-1.411738198E-3	2.801431187E-3
8.69	-3.780022318E-2	-5.813550266E-4	1.887705290E-3
8.700000000000001	-3.667942441E-2	-1.214119300E-3	9.008421037E-4
8.71	-3.552158988E-2	-1.150146976E-3	1.817094240E-3
8.72	-3.553932492E-2	1.603111857E-3	1.276833266E-3
8.73	-3.341776827E-2	2.514755794E-3	-5.384522094E-4
8.74	-3.391938841E-2	-1.382098004E-3	-8.384881880E-4
8.75	-3.227832684E-2	1.191580519E-3	5.525274562E-3
8.76	-3.309322566E-2	6.702894703E-3	2.843719622E-3
8.77	-3.298124409E-2	7.348311067E-3	7.162107561E-4
8.78	-3.256388819E-2	2.522749648E-3	-1.798056212E-3
8.790000000000001	-3.203597436E-2	9.942747494E-4	-2.701672281E-3
8.8	-2.903801074E-2	1.064232264E-3	-3.518457574E-3
8.81	-2.633757335E-2	-1.138810443E-3	-2.498234711E-3
8.82	-2.395142489E-2	-5.919920248E-3	-1.834773677E-3
8.83	-2.114357120E-2	-8.918336027E-3	-1.010394279E-3
8.84	-1.894762967E-2	-7.361841320E-3	3.580579251E-5
8.85	-1.801997459E-2	-4.742024347E-3	-1.703890410E-3
8.86	-1.629136181E-2	-3.350321755E-3	-2.488955107E-3
8.870000000000001	-1.540391058E-2	-5.570738931E-4	-2.864709381E-3
8.88	-1.366015850E-2	2.346102668E-3	-4.212256643E-3
8.89	-1.221738792E-2	6.013112486E-3	-4.038065520E-3
8.9	-9.420487055E-3	5.323582775E-3	-3.533018440E-3
8.91	-5.095388567E-3	4.769438134E-3	-2.938971932E-3
8.92	2.424209980E-4	3.929582432E-3	-2.462118712E-3
8.93	5.797160728E-3	2.533666834E-3	-3.412321654E-3
8.94	9.271938271E-3	1.144429961E-3	-2.678719342E-3
8.950000000000001	1.249460462E-2	-1.517976674E-3	-3.435379491E-3
8.96	1.601943697E-2	-8.583874221E-4	-3.191612453E-3
8.97	1.903163157E-2	-2.033549145E-5	-2.557277339E-3
8.98	2.226103121E-2	-1.534177318E-3	-2.416990843E-3
8.99	2.629114354E-2	-2.744111523E-3	-2.820337858E-3
9.0	3.001432000E-2	-1.793486595E-3	-2.740185417E-3
9.01	3.422408661E-2	-1.565680122E-3	-1.670057057E-3
9.02	3.842716840E-2	-2.635890022E-3	-1.535611162E-3
9.03	4.048383184E-2	-3.807147171E-3	-3.898546929E-4
9.040000000000001	4.532102609E-2	-2.745834395E-3	-5.051790144E-4
9.05	4.536603653E-2	1.529251382E-3	1.613217745E-3
9.06	4.775640929E-2	4.520088777E-3	2.572709474E-3
9.07	4.792004096E-2	5.780916866E-3	-1.073575971E-3
9.08	4.853052348E-2	7.383080315E-3	-3.570282190E-4
9.09	4.899204468E-2	6.843892031E-3	-6.263681227E-4
9.1	5.048485392E-2	4.929208119E-3	-7.331369116E-4
9.11	5.204087818E-2	8.096506150E-4	-9.330926802E-4
9.120000000000001	5.146722519E-2	-9.078539460E-4	1.494408998E-3
9.13	5.057425728E-2	-1.452114532E-3	2.658667319E-3
9.14	4.909751248E-2	-1.498904238E-3	2.527542455E-3
9.15	4.787034607E-2	-1.642172993E-3	3.419705311E-3
9.16	4.805448578E-2	-2.450526837E-3	4.340166131E-3
9.17	4.787496650E-2	-8.415826707E-4	3.918382082E-3
9.18	4.847658598E-2	2.989139900E-3	2.918149385E-3
9.19	5.081081590E-2	3.539056439E-4	3.563531171E-3
9.200000000000001	5.325208459E-2	-1.760179050E-3	3.930430502E-3
9.21	5.827557409E-2	-1.886794373E-3	4.485207948E-3
9.22	6.064967565E-2	2.357086307E-4	4.156107893E-3
9.23	6.546325096E-2	-1.557504576E-3	4.938784488E-3
9.24	6.891123792E-2	-2.618014352E-4	4.384089503E-3
9.25	7.161572892E-2	1.845148202E-3	3.333508158E-3
9.26	7.404091203E-2	2.990863964E-3	3.494798097E-3
9.27	7.787124956E-2	1.488262907E-3	2.701493654E-3
9.28	8.131311191E-2	-2.052140064E-4	2.072546149E-3
9.290000000000001	8.327932303E-2	-1.366583633E-4	1.720602477E-3
9.3	8.457946410E-2	-3.207623474E-4	8.774674285E-4
9.31	8.510642769E-2	-2.193414281E-3	7.296344750E-4
9.32	8.470468724E-2	-3.692789480E-3	1.651135835E-3
9.33	8.225181132E-2	-1.944425332E-3	2.103600924E-3
9.34	7.776666780E-2	9.144956995E-5	2.790524699E-3
9.35	7.351227367E-2	8.483413310E-4	2.115899477E-3
9.36	6.846145952E-2	3.752465994E-4	3.613740358E-3
9.370000000000001	6.392513102E-2	1.403393608E-3	1.710724468E-3
9.38	5.998762973E-2	1.574726432E-3	2.785953059E-3
9.39	5.553794348E-2	1.258227870E-3	4.367638979E-3
9.4	5.076524937E-2	2.085089281E-3	2.679444704E-3
9.41	4.630289741E-2	-2.258456115E-4	8.430162382E-4
9.42	4.279204289E-2	-6.279289980E-4	1.088739033E-3
9.43	3.852057002E-2	2.008092222E-3	2.551795750E-3
9.44	3.368104130E-2	3.742744513E-3	2.812632851E-3
9.450000000000001	2.980866768E-2	2.605945141E-3	1.581294380E-3
9.46	2.740377845E-2	2.149395188E-3	5.922923232E-4
9.47	2.613446736E-2	4.296374068E-3	1.540578935E-4
9.48	2.838508802E-2	9.226525945E-4	-1.810258927E-3
9.49	2.930168432E-2	-3.937696233E-3	-9.290858886E-4
9.5	2.950886044E-2	-4.543804348E-3	-1.732703420E-3
9.51	2.972902620E-2	-7.969547360E-4	-1.389139738E-3
9.52	3.020952205E-2	-2.528819936E-3	-1.574505768E-3
9.53	2.801192693E-2	2.090135351E-4	-3.105120067E-3
9.540000000000001	2.678032720E-2	1.329479560E-3	-3.508108702E-3
9.55	2.467323685E-2	3.645725742E-3	-4.085444060E-3
9.56	2.407372013E-2	5.513889235E-3	-3.321897316E-3
9.57	2.343611641E-2	1.819449128E-3	-2.562809654E-3
9.58	2.258217376E-2	-7.571499591E-5	-1.680342425E-3
9.59	2.158301082E-2	-6.887228935E-4	-1.848510429E-3
9.6	1.944430797E-2	-2.313265853E-3	-2.691593565E-3
9.61	1.578347200E-2	-3.675166771E-3	-2.959498015E-3
9.620000000000001	1.321037614E-2	-1.435343429E-3	-2.439726439E-3
9.63	9.368543415E-3	-8.865351965E-5	-3.078707304E-3
9.64	4.174026350E-3	6.307938150E-4	-2.730578032E-3
9.65	-1.491212861E-3	2.167168367E-3	-2.923787429E-3
9.66	-5.244514519E-3	1.130856916E-3	-2.466505614E-3
9.67	-9.150527483E-3	2.480588337E-3	-2.851290421E-3
9.68	-1.150438694E-2	-2.333048073E-4	-2.189636210E-3
9.69	-1.340835935E-2	-2.191528484E-3	-2.711676207E-3
9.700000000000001	-1.669894970E-2	-2.465809092E-3	-2.504652586E-3
9.71	-1.973833847E-2	-7.079726175E-4	-3.456184079E-3
9.72	-2.249949140E-2	-9.956987852E-4	-3.739944920E-3
9.73	-2.646097718E-2	1.686526982E-3	-3.989022756E-3
9.74	-2.988287696E-2	9.714486429E-4	-4.698529072E-3
9.75	-3.079655704E-2	-2.412795846E-3	-1.083349408E-2
9.76	-3.364898241E-2	1.491382475E-3	-1.534073563E-2
9.77	-3.970020230E-2	6.389582225E-3	-5.826777067E-3
9.78	-3.058953321E-2	-1.081237833E-2	-5.503290739E-3
9.790000000000001	-3.632710575E-2	-6.091605106E-3	3.915432285E-3
9.8	-3.704947291E-2	-1.134814262E-3	5.697631173E-3
9.81	-3.761710233E-2	-3.822622115E-3	4.596342795E-3
9.82	-4.257292131E-2	-1.780556446E-5	4.240957902E-3
9.83	-4.410566425E-2	2.483101681E-3	5.223313722E-3
9.84	-4.608152519E-2	4.173361708E-3	2.972658261E-3
9.85	-4.828322512E-2	4.266573220E-3	1.469775346E-3
9.86	-4.802717662E-2	-2.342214732E-4	2.474309358E-3
9.870000000000001	-4.869940619E-2	-3.743714349E-3	1.864251904E-3
9.88	-5.178524546E-2	3.013033515E-4	1.335632263E-3
9.89	-5.365223637E-2	2.064631036E-3	4.204805329E-3
9.9	-5.701234816E-2	-4.934437348E-3	4.411764987E-3
9.91	-6.302617824E-2	-4.353781447E-3	2.732736025E-3
9.92	-6.708865798E-2	2.536210866E-4	5.076199922E-3
9.93	-7.006225622E-2	2.250385627E-3	4.058152590E-3
9.94	-7.365462374E-2	-9.239112404E-4	1.550719110E-3
9.950000000000001	-7.650918513E-2	-3.768466109E-3	2.752894692E-3
9.96	-7.742100600E-2	-3.563966020E-3	2.675844053E-3
9.97	-7.807157665E-2	-1.660510798E-3	1.223586574E-3
9.98	-7.859308875E-2	-9.823621361E-4	7.093061540E-4
9.99	-7.727799809E-2	-3.516959652E-3	1.216145906E-3
10.0	-7.682359100E-2	-9.835606531E-4	1.189419007E-3
10.01	-7.535662913E-2	2.770335209E-3	2.300266807E-3
10.02	-7.264909456E-2	2.953039094E-3	3.777081221E-3
10.03	-7.093188573E-2	1.714013491E-3	3.969623505E-3
10.040000000000001	-6.894675410E-2	1.583073184E-3	3.950902376E-3
10.05	-6.417980111E-2	1.675585553E-3	4.252931032E-3
10.06	-6.198227140E-2	-2.588916407E-4	4.994853858E-3
10.07	-5.899600391E-2	-4.961605223E-3	5.380698093E-3
10.08	-5.595562494E-2	-6.737447187E-3	5.921822939E-3
10.09	-5.583360761E-2	-4.044591753E-3	3.940158352E-3
10.1	-5.582809729E-2	-4.855898221E-3	5.956553750E-3
10.11	-5.460222876E-2	-5.477523908E-3	5.429936800E-3
10.120000000000001	-5.638063824E-2	-2.733959362E-3	3.733827028E-3
10.13	-5.612923186E-2	7.805822465E-4	2.108664503E-3
10.14	-5.578239427E-2	1.864873655E-3	2.597123537E-3
10.15	-5.502422690E-2	1.617187415E-3	2.709256663E-3
10.16	-5.372620361E-2	1.785891059E-3	1.536116792E-3
10.17	-5.138193286E-2	2.349409059E-3	-7.337175276E-4
10.18	-4.801477525E-2	1.646495814E-3	-1.116463898E-4
10.19	-4.507870641E-2	-7.035972520E-6	4.423973248E-3
10.200000000000001	-4.263160205E-2	6.332454533E-4	4.675618562E-3
10.21	-4.235438111E-2	6.128176249E-3	5.391379249E-4
10.22	-3.888561981E-2	6.098144805E-3	-2.477201824E-3
10.23	-3.520651496E-2	1.535955414E-3	-1.165026274E-3
10.24	-3.085193968E-2	-9.401629855E-5	-3.124540892E-3
10.25	-2.497656679E-2	-2.951298206E-4	-1.677435484E-3
10.26	-2.002027428E-2	-2.271025267E-3	3.079025150E-4
10.27	-1.468464539E-2	-7.952462335E-3	-1.119841185E-3
10.28	-1.026292674E-2	-9.351621032E-3	-8.730029566E-4
10.290000000000001	-7.184856199E-3	-6.117737805E-3	-1.036087499E-3
10.3	-4.253506591E-3	-2.766521081E-3	-2.098063078E-3
10.31	-2.128030123E-3	-9.084289818E-4	-2.638929930E-3
10.32	-7.908383524E-4	1.592281472E-3	-3.197747758E-3
10.33	1.508653492E-3	4.984128522E-3	-2.955018977E-3
10.34	3.789843374E-3	7.054290528E-3	-2.651106403E-3
10.35	5.212018131E-3	6.435258433E-3	-3.375357237E-3
10.36	8.165864048E-3	4.429179902E-3	-3.205692689E-3
10.370000000000001	9.688246911E-3	2.991529152E-3	-4.636802333E-3
10.38	1.079472118E-2	1.422949478E-3	-3.994005766E-3
10.39	1.145935172E-2	-8.946378081E-4	-1.853579130E-3
10.4	1.129654610E-2	-4.978189275E-3	-3.090876188E-3
10.41	1.021070253E-2	-2.157641558E-3	-1.969166812E-3
10.42	1.037711219E-2	-1.573673340E-3	-2.879768834E-3
10.43	1.116798081E-2	-2.184420398E-3	-2.762838126E-3
10.44	1.302152157E-2	-3.447572395E-3	-3.213599015E-3
10.450000000000001	1.540518874E-2	-3.349364802E-3	-3.824919310E-3
10.46	1.760555529E-2	-2.466574415E-3	-3.115824309E-3
10.47	2.008936678E-2	-3.061372499E-3	-1.801360163E-3
10.48	2.272003301E-2	-2.948016221E-3	-9.530917325E-4
10.49	2.545864561E-2	-1.097867093E-3	-2.882840405E-4
10.5	2.763555720E-2	2.142359314E-3	3.894206994E-4
10.51	2.824328089E-2	5.862948790E-3	1.074773226E-3
10.52	2.896652245E-2	8.095110625E-3	1.405393038E-3
10.53	3.164264556E-2	8.338484585E-3	-3.308756942E-4
10.540000000000001	3.524923775E-2	6.297414015E-3	-9.470912576E-4
10.55	3.907215857E-2	2.865216479E-3	-6.057916548E-4
10.56	4.472838623E-2	-9.730731883E-4	7.373585429E-4
10.57	4.924930010E-2	-3.889637584E-3	7.884079173E-4
10.58	5.337607825E-2	-6.182184622E-3	2.245153520E-4
10.59	5.509415829E-2	-5.372752055E-3	7.667745683E-4
10.6	5.694769513E-2	-3.967571815E-3	1.901390233E-3
10.61	5.707940063E-2	-1.171089273E-3	2.372394034E-3
10.620000000000001	5.756798176E-2	1.532842149E-3	2.347826528E-3
10.63	5.924417113E-2	2.907202721E-3	2.687419502E-3
10.64	6.181338356E-2	3.786262252E-3	3.032077710E-3
10.65	6.512817506E-2	4.449669523E-3	2.766924660E-3
10.66	6.776800182E-2	2.465560983E-3	3.269945786E-3
10.67	7.025998795E-2	-3.368373205E-5	4.546624574E-3
10.68	7.326402672E-2	-5.482300263E-4	3.001059947E-3
10.69	7.312956347E-2	1.748289930E-4	3.875989753E-3
10.700000000000001	7.354343726E-2	6.487058662E-4	3.684864447E-3
10.71	7.400811862E-2	6.280037268E-4	3.164279676E-3
10.72	7.381068671E-2	3.574336023E-4	1.969205293E-3
10.73	7.399934852E-2	-2.980027645E-4	1.881314668E-3
10.74	7.400370337E-2	-1.557175114E-3	2.191638878E-3
10.75	7.435541650E-2	-4.220118078E-3	1.851852155E-3
10.76	7.413457751E-2	-5.494047313E-3	1.815590967E-3
10.77	7.203514314E-2	-4.025084935E-3	1.822158753E-3
10.78	6.924626409E-2	-3.104468221E-3	9.623927151E-4
10.790000000000001	6.448612962E-2	-7.669131716E-4	9.155246727E-4
10.8	5.915376508E-2	2.600896701E-3	1.525956545E-3
10.81	5.427054727E-2	5.133004084E-3	5.195440386E-4
10.82	4.877442086E-2	6.355004728E-3	8.824171160E-4
10.83	4.737738806E-2	4.235338096E-3	1.443413089E-3
10.84	4.467554187E-2	4.319098803E-3	1.491244539E-3
10.85	4.166961767E-2	2.142061463E-3	1.565256359E-3
10.86	4.079338179E-2	-1.010225033E-3	1.739664920E-3
10.870000000000001	3.880094433E-2	-2.283083007E-3	1.308595094E-3
10.88	3.650672400E-2	-2.126980528E-3	1.260186586E-3
10.89	3.551632549E-2	-1.092842127E-3	8.638310632E-4
10.9	3.313900403E-2	-1.262639253E-3	1.269833755E-3
10.91	3.147215815E-2	-1.486827339E-3	1.180279039E-3
10.92	3.289304195E-2	4.955715468E-4	-6.478386535E-4
10.93	3.462832951E-2	1.642258659E-3	-1.032465544E-3
10.94	3.737534070E-2	-2.211257025E-3	7.182897661E-4
10.950000000000001	3.967629109E-2	-1.938462623E-3	-4.325149184E-4
10.96	4.086917054E-2	-1.036677833E-3	-2.333678859E-3
10.97	4.296034241E-2	2.028647513E-4	-3.259485808E-3
10.98	4.245619896E-2	8.746942318E-5	-2.707061130E-3
10.99	4.105701913E-2	4.040088863E-3	-2.884223999E-3
11.0	3.942650044E-2	5.587902561E-3	-3.391092863E-3
11.01	3.700624966E-2	4.868301496E-3	-3.460959044E-3
11.02	3.451959175E-2	1.349373293E-3	-2.555401011E-3
11.03	3.132620625E-2	-2.116249805E-5	-2.842687969E-3
11.040000000000001	2.837071736E-2	-1.237310044E-3	-3.097262274E-3
11.05	2.488082530E-2	-4.131800464E-3	-3.223154832E-3
11.06	1.973543846E-2	-6.237346932E-3	-3.442076292E-3
11.07	1.306385004E-2	-5.062272057E-3	-3.547037688E-3
11.08	6.574683379E-3	-2.518001215E-3	-2.892723858E-3
11.09	-2.203016505E-5	2.499314022E-4	-1.898396804E-3
11.1	-6.844290539E-3	2.479767554E-3	-1.965659410E-3
11.11	-1.310510710E-2	3.350911475E-3	-2.499412397E-3
11.120000000000001	-1.805924064E-2	3.213812009E-3	-2.378386107E-3
11.13	-2.087769395E-2	3.427374706E-3	-1.360434141E-3
11.14	-2.416541314E-2	1.303238765E-3	-5.061326887E-4
11.15	-2.720255972E-2	-1.485148934E-3	-8.353269342E-4
11.16	-3.104167864E-2	-6.072013683E-6	-2.245132708E-3
11.17	-3.390301351E-2	5.222563415E-4	-2.721223782E-3
11.18	-3.638416668E-2	-3.289413239E-4	-2.545966761E-3
11.19	-3.801716216E-2	-2.038311234E-4	-2.292099774E-3
11.200000000000001	-3.955668018E-2	5.941926391E-4	-2.064317061E-3
11.21	-3.842968202E-2	1.674299390E-4	2.622739229E-3
11.22	-3.489239252E-2	8.042873890E-4	1.470848218E-2
11.23	-3.451628530E-2	3.431542953E-3	1.689420632E-2
11.24	-2.979588497E-2	-2.233406100E-3	3.844307191E-3
11.25	-2.054671919E-2	-1.175722729E-2	-3.030546751E-3
11.26	-2.411446309E-2	-7.011869102E-4	4.615918550E-3
11.27	-2.078446741E-2	4.313359775E-4	5.071236106E-3
11.28	-2.083928543E-2	-1.629481043E-3	2.089021977E-4
11.290000000000001	-2.752974367E-2	5.585987464E-3	5.279237184E-3
11.3	-2.643822368E-2	6.351186006E-3	4.340915847E-3
11.31	-2.790028617E-2	8.432950136E-3	3.639466476E-3
11.32	-3.045862747E-2	5.155468243E-3	4.261736154E-3
11.33	-3.224007068E-2	-2.322963455E-3	4.544830663E-3
11.34	-3.667904234E-2	-3.061677322E-3	3.770429048E-3
11.35	-4.169997132E-2	2.643478365E-4	4.015790376E-3
11.36	-4.659291100E-2	-2.643326907E-3	5.364040024E-3
11.370000000000001	-5.548639798E-2	-5.826300126E-3	4.866634509E-3
11.38	-6.487678149E-2	-4.191956621E-3	3.734017527E-3
11.39	-7.135163632E-2	-2.277398995E-4	3.875066194E-3
11.4	-7.766011036E-2	9.299351723E-4	3.755303774E-3
11.41	-8.299975908E-2	-1.554671928E-3	1.519299898E-3
11.42	-8.666482449E-2	-4.205871840E-3	1.737124763E-3
11.43	-8.844766245E-2	-2.110589070E-3	2.375861057E-3
11.44	-8.902912772E-2	1.170121476E-3	1.560479555E-3
11.450000000000001	-9.005253800E-2	-2.114841349E-3	1.447922438E-3
11.46	-8.915824863E-2	-2.060336481E-3	1.573166435E-3
11.47	-8.751867310E-2	3.171828557E-3	3.137204608E-3
11.48	-8.575380499E-2	4.675878261E-3	4.178971079E-3
11.49	-8.139985597E-2	3.683266983E-3	4.722920809E-3
11.5	-7.512321985E-2	1.834751859E-3	5.197545442E-3
11.51	-6.833137707E-2	5.852977828E-4	4.596190914E-3
11.52	-6.223836113E-2	-1.885605590E-3	4.302763025E-3
11.53	-5.655015250E-2	-5.604086115E-3	5.215988562E-3
11.540000000000001	-5.075042506E-2	-7.893429377E-3	6.089008070E-3
11.55	-4.601527965E-2	-7.317418858E-3	5.461865816E-3
11.56	-4.383195973E-2	-5.210330292E-3	4.021359834E-3
11.57	-4.228746014E-2	-3.721204349E-3	5.055799338E-3
11.58	-4.112804557E-2	-2.057048402E-3	5.343477258E-3
11.59	-4.028884681E-2	1.592742487E-3	3.222708738E-3
11.6	-4.038539872E-2	3.518228358E-3	3.031998715E-3
11.61	-3.889099220E-2	4.038446073E-3	2.936430820E-3
11.620000000000001	-3.719293392E-2	2.425832495E-3	1.102601442E-3
11.63	-3.520382917E-2	2.742249712E-3	1.014996919E-3
11.64	-3.396215287E-2	1.959108748E-3	4.342900902E-3
11.65	-3.412803250E-2	2.968076320E-4	4.853899443E-3
11.66	-3.461895742E-2	1.140778351E-3	5.513524074E-4
11.67	-3.593448297E-2	3.351667265E-3	-2.653779355E-3
11.68	-3.685186814E-2	3.712483483E-3	-2.520255210E-3
11.69	-3.617894328E-2	1.801424369E-3	-1.639917937E-3
11.700000000000001	-3.533809817E-2	1.485006854E-3	-2.261980620E-3
11.71	-3.178318894E-2	-5.150134413E-4	-1.052645292E-3
11.72	-2.891924410E-2	-4.585964092E-3	9.508638522E-4
11.73	-2.484803565E-2	-8.726953294E-3	6.206736708E-4
11.74	-1.990277505E-2	-8.642274544E-3	-3.015383742E-5
11.75	-1.813298202E-2	-6.162840530E-3	-1.142042723E-3
11.76	-1.810616589E-2	-3.382693633E-3	-1.684111204E-3
11.77	-1.533858757E-2	-1.189248592E-3	-2.253490093E-3
11.78	-1.533903350E-2	2.325548559E-3	-2.817332279E-3
11.790000000000001	-1.515847196E-2	7.145197977E-3	-3.197887866E-3
11.8	-1.273655098E-2	7.718298747E-3	-1.826814010E-3
11.81	-9.459692902E-3	6.233131235E-3	-1.260527926E-3
11.82	-5.112798336E-3	3.404955391E-3	-2.483040318E-3
11.83	-3.485046347E-5	6.504780498E-4	-3.732389095E-3
11.84	4.306517331E-3	-1.136404244E-3	-3.657576625E-3
11.85	6.815356598E-3	-2.723504927E-3	-2.731014714E-3
11.86	8.045220016E-3	-3.610620305E-3	-8.671937849E-4
11.870000000000001	9.873562324E-3	-3.374156169E-3	-1.904791441E-3
11.88	1.313532335E-2	-2.106538331E-3	-7.001040215E-4
11.89	1.496265436E-2	-1.161818425E-3	-1.065649878E-3
11.9	1.817236104E-2	-2.225601589E-3	-2.732092276E-5
11.91	2.298254812E-2	-1.735481128E-3	-5.498300459E-4
11.92	2.817049646E-2	-1.711155876E-3	-3.051661101E-3
11.93	3.239808190E-2	-2.647086773E-3	-3.076606395E-3
11.94	3.562295617E-2	-2.193726954E-3	-2.646141716E-3
11.950000000000001	3.736330231E-2	-1.301609783E-4	-2.204581906E-3
11.96	3.791832436E-2	2.290053154E-3	-1.246385736E-3
11.97	3.925181949E-2	3.688821539E-3	-1.559008208E-3
11.98	4.055119955E-2	5.711826354E-3	-3.622804548E-4
11.99	4.125181621E-2	6.476287312E-3	2.929121676E-4
12.0	4.156560658E-2	5.766333747E-3	-7.492041946E-4
12.01	4.452615046E-2	2.381587371E-3	-1.646822539E-3
12.02	4.568955366E-2	-9.903938197E-4	1.158722468E-3
12.030000000000001	4.716865159E-2	-4.940414941E-3	9.921970762E-4
12.040000000000001	4.773112619E-2	-6.837429508E-3	1.352063570E-3
12.05	4.675333106E-2	-7.271642193E-3	1.020108614E-3
12.06	4.595048038E-2	-4.769389439E-3	2.375113160E-5
12.07	4.363010496E-2	-1.055961473E-3	5.943994415E-4
12.08	4.255808070E-2	1.272735122E-3	1.561955984E-3
12.09	4.203054502E-2	3.769045086E-3	1.899522821E-3
12.1	4.216972469E-2	5.044353655E-3	2.652791037E-3
12.11	4.426352478E-2	3.979694410E-3	3.990908512E-3
12.120000000000001	4.681539142E-2	3.984362081E-3	4.329530153E-3
12.13	4.949976885E-2	2.857171938E-3	4.609929476E-3
12.14	5.332658785E-2	-5.225377017E-4	4.106887702E-3
12.15	5.507651688E-2	-9.163118608E-4	4.073285895E-3
12.16	5.929837787E-2	8.732404263E-4	2.443486604E-3
12.17	6.023193672E-2	-5.256820583E-4	3.509435468E-3
12.18	6.396751224E-2	-1.147626805E-3	3.381040813E-3
12.19	6.831110799E-2	-2.882017001E-3	2.808362398E-3
12.200000000000001	7.235501253E-2	-3.641267225E-3	2.663899812E-3
12.21	7.766965997E-2	-5.351151891E-3	2.319835076E-3
12.22	8.031597641E-2	-5.658473696E-3	3.060279986E-3
12.23	8.160311301E-2	-5.372291157E-3	2.395184766E-3
12.24	8.217959519E-2	-3.248506042E-3	2.362119112E-3
12.25	8.071728432E-2	3.218080551E-4	2.691480074E-3
12.26	7.622557008E-2	3.743026599E-3	1.894132051E-3
12.27	7.128996703E-2	6.041287578E-3	1.859874421E-3
12.280000000000001	6.673971864E-2	7.220472532E-3	1.862402474E-3
12.290000000000001	6.220916632E-2	6.882135089E-3	1.314797262E-3
12.3	5.704208043E-2	4.944089084E-3	1.601813808E-3
12.31	5.244521463E-2	1.474663958E-3	1.939755831E-3
12.32	4.794890249E-2	-5.776454060E-4	3.467255983E-3
12.33	4.376192355E-2	-2.357016906E-3	3.425103578E-3
12.34	3.838830004E-2	-2.915456639E-3	2.071916754E-3
12.35	3.279422977E-2	-3.432867685E-3	2.240627127E-3
12.36	2.777996995E-2	-2.765615981E-3	3.061308616E-3
12.370000000000001	2.340525883E-2	-1.840171840E-3	2.446235194E-3
12.38	2.072586948E-2	2.733493299E-4	2.562962923E-3
12.39	2.029663765E-2	8.492985816E-4	1.358987245E-3
12.4	2.083763455E-2	1.876474648E-4	7.863997729E-4
12.41	2.264307617E-2	-6.421328947E-4	4.465618528E-4
12.42	2.452832406E-2	-8.671134869E-4	-3.797673097E-4
12.43	2.619589045E-2	2.121284268E-4	-6.805687560E-4
12.44	2.888511860E-2	1.534423724E-3	-6.679902937E-4
12.450000000000001	2.976005638E-2	3.798764095E-3	-7.009492781E-4
12.46	2.970247181E-2	5.512600707E-3	-3.267029254E-3
12.47	3.124120325E-2	5.510935216E-3	-3.131974532E-3
12.48	3.193073237E-2	3.460893378E-3	-3.452890959E-3
12.49	3.263634540E-2	1.777267468E-3	-3.692227891E-3
12.5	3.326156794E-2	-2.056879082E-3	-1.970244619E-3
12.51	3.238304229E-2	-4.715571173E-3	-4.844230582E-4
12.52	3.069581931E-2	-7.451544838E-3	-1.632412018E-3
12.530000000000001	2.679948115E-2	-7.057695493E-3	-2.586058226E-3
12.540000000000001	2.063489044E-2	-4.804082021E-3	-1.901682463E-3
12.55	1.452651915E-2	-1.876899726E-3	-2.083294548E-3
12.56	8.834056770E-3	6.652623000E-4	-2.356484725E-3
12.57	3.610910365E-3	3.189539268E-3	-2.149345325E-3
12.58	-1.101144443E-3	5.895852668E-3	-1.794222441E-3
12.59	-6.027897359E-3	6.478162602E-3	-8.708940413E-4
12.6	-1.008099368E-2	3.635191515E-3	-7.015787031E-4
12.61	-1.248688628E-2	9.804063030E-4	-1.583430276E-3
12.620000000000001	-1.577315508E-2	-4.809809584E-5	-1.825490912E-3
12.63	-2.036437726E-2	2.785209269E-4	-2.931994047E-3
12.64	-2.420180327E-2	-1.667486533E-3	-1.801985350E-3
12.65	-2.877472973E-2	-1.687597141E-3	-7.944284346E-4
12.66	-3.195281112E-2	1.766875043E-4	-2.146055737E-3
12.67	-3.472414489E-2	1.938503751E-3	-8.736014725E-4
12.68	-3.887844905E-2	2.509066969E-5	1.013629751E-3
12.69	-3.544902841E-2	-6.817116591E-3	-6.502016630E-3
12.700000000000001	-3.393233708E-2	-3.740794145E-3	-3.472706192E-3
12.71	-3.430362915E-2	3.131321954E-4	1.394978494E-3
12.72	-3.238508201E-2	-3.348001427E-3	1.899655933E-3
12.73	-2.977108414E-2	-8.133414882E-3	9.475224600E-4
12.74	-3.430770468E-2	2.550340944E-3	-6.476088735E-3
12.75	-3.058666325E-2	2.668891445E-3	-2.117937651E-3
12.76	-3.428591000E-2	3.023588384E-3	2.109123680E-3
12.77	-3.718480833E-2	5.602741780E-3	-2.071685450E-3
12.780000000000001	-3.745686091E-2	6.199872459E-3	3.489881612E-3
12.790000000000001	-3.802853532E-2	5.843361551E-3	5.279362668E-3
12.8	-3.768424538E-2	7.226365701E-4	3.442082513E-3
12.81	-3.800985532E-2	-5.222023547E-3	4.251747472E-3
12.82	-4.085261440E-2	-6.023209199E-3	6.103383455E-3
12.83	-4.603296592E-2	-3.181931317E-3	4.700508247E-3
12.84	-5.119296671E-2	-3.875317295E-3	3.322895284E-3
12.85	-5.600465453E-2	-5.133906707E-3	3.627435121E-3
12.86	-6.054898617E-2	-1.796335660E-3	3.479879805E-3
12.870000000000001	-6.499889905E-2	1.120120238E-3	2.520874766E-3
12.88	-6.805782950E-2	2.824993774E-3	2.029782686E-3
12.89	-6.875119245E-2	-2.090782329E-3	2.271062288E-3
12.9	-6.882014907E-2	-3.333850607E-3	2.097779665E-3
12.91	-6.879082652E-2	-1.776023611E-3	2.209394881E-3
12.92	-7.025580844E-2	5.736785791E-4	2.179702296E-3
12.93	-7.038233463E-2	-2.528503236E-4	2.566894416E-3
12.94	-7.035298923E-2	3.853672485E-4	3.084269412E-3
12.950000000000001	-7.025762475E-2	3.256716028E-3	3.974839601E-3
12.96	-6.903772867E-2	4.078406140E-3	4.111577425E-3
12.97	-6.703666131E-2	7.162522504E-4	3.574381866E-3
12.98	-6.408969652E-2	-2.576761722E-3	4.621535875E-3
12.99	-6.019795744E-2	-4.256365652E-3	5.800886822E-3
13.0	-5.653731859E-2	-5.012856528E-3	5.102750215E-3
13.01	-5.558366037E-2	-6.342691585E-3	4.415093813E-3
13.02	-5.341412938E-2	-7.554540738E-3	6.147176180E-3
13.030000000000001	-5.326696104E-2	-4.709694799E-3	5.857292154E-3
13.040000000000001	-5.374010398E-2	-2.792307156E-3	5.270915121E-3
13.05	-5.382478273E-2	6.016974161E-5	2.233773622E-3
13.06	-5.541760722E-2	2.286717436E-3	3.293129181E-3
13.07	-5.352459583E-2	2.128195494E-3	3.084156979E-3
13.08	-5.216109967E-2	4.167470977E-3	1.133786592E-3
13.09	-5.040011561E-2	3.416457519E-3	1.218968782E-3
13.1	-4.837886572E-2	2.362635118E-3	2.063815908E-3
13.11	-4.536930873E-2	-2.196137630E-4	3.957506822E-3
13.120000000000001	-4.314962352E-2	-4.302335165E-4	3.483256519E-3
13.13	-4.100181151E-2	1.462808971E-3	4.523812739E-4
13.14	-3.891848242E-2	3.146008298E-3	-2.090204802E-3
13.15	-3.640303946E-2	2.899501219E-3	-2.283094969E-3
13.16	-3.290689690E-2	1.096569390E-3	-1.331686159E-3
13.17	-2.943343263E-2	4.834503495E-5	-9.430400052E-4
13.18	-2.414913167E-2	-1.413417173E-3	-5.854312968E-4
13.19	-1.925634033E-2	-4.541436397E-3	2.230029196E-3
13.200000000000001	-1.507319099E-2	-8.116507932E-3	1.821977052E-3
13.21	-1.071278818E-2	-7.825183976E-3	-1.019490302E-4
13.22	-9.681116423E-3	-5.195057904E-3	-1.873012951E-4
13.23	-9.251833842E-3	-3.116266236E-3	-9.811960127E-4
13.24	-8.555791439E-3	3.449832351E-4	-1.725042906E-3
13.25	-8.424239206E-3	3.280010242E-3	-1.813032666E-3
13.26	-7.569218943E-3	6.931216071E-3	-2.487188300E-3
13.27	-5.722007045E-3	7.142821242E-3	-2.559835008E-3
13.280000000000001	-3.264545044E-3	4.436054855E-3	-2.688185703E-3
13.290000000000001	-4.972914470E-4	1.227965400E-3	-2.604979124E-3
13.3	2.224245458E-3	-9.494174569E-4	-2.109278288E-3
13.31	3.552858311E-3	-1.254311385E-3	-2.561124234E-3
13.32	3.633165448E-3	-2.853386961E-3	-2.711839837E-3
13.33	3.673033706E-3	-5.043338565E-3	-2.054949796E-3
13.34	3.829698985E-3	-2.279597944E-3	-1.738245995E-3
13.35	3.730868934E-3	-2.127696126E-4	-2.596777525E-3
13.36	5.760194002E-3	3.177862317E-4	-1.988714781E-3
13.370000000000001	7.971478640E-3	1.645568461E-4	-1.482981291E-3
13.38	9.999396431E-3	5.050656721E-4	-2.549966245E-3
13.39	1.366662347E-2	-4.893473362E-4	-2.509137867E-3
13.4	1.805598516E-2	-1.222046674E-3	-2.704029387E-3
13.41	2.087093270E-2	-9.082171579E-4	-2.404230681E-3
13.42	2.310321593E-2	6.432053895E-4	-1.553667631E-3
13.43	2.550201440E-2	3.244457737E-3	-1.509436217E-3
13.44	2.737174870E-2	3.555242922E-3	-1.546979902E-3
13.450000000000001	2.900437448E-2	3.555804724E-3	-9.702970211E-4
13.46	3.117632915E-2	4.547790348E-3	3.925063780E-4
13.47	3.425750420E-2	3.712118744E-3	1.547642095E-3
13.48	3.810175607E-2	2.827033834E-5	1.149137452E-3
13.49	4.270711348E-2	-2.999518743E-3	1.782941657E-3
13.5	4.654589856E-2	-4.388256773E-3	1.355534944E-3
13.51	4.711954558E-2	-4.065519974E-3	1.270276460E-3
13.52	5.033927524E-2	-3.705430433E-3	2.848447893E-4
13.530000000000001	4.975851702E-2	-4.456441599E-3	-2.116309956E-4
13.540000000000001	5.092433530E-2	-2.372923598E-3	2.225467675E-4
13.55	4.974313585E-2	2.516916305E-3	1.467111307E-3
13.56	5.015441765E-2	4.032800635E-3	1.988719478E-3
13.57	5.140229547E-2	3.408412978E-3	2.459756288E-3
13.58	5.289531910E-2	3.271847710E-3	3.218232546E-3
13.59	5.331932403E-2	2.884050995E-3	3.648115019E-3
13.6	5.472866405E-2	1.239377093E-3	4.433463588E-3
13.61	5.618321676E-2	4.551712219E-4	5.644905352E-3
13.620000000000001	5.600943944E-2	9.583124104E-4	5.528549736E-3
13.63	5.629834497E-2	5.851702840E-4	3.595124635E-3
13.64	5.726023638E-2	4.953399749E-4	3.119946871E-3
13.65	5.735265207E-2	1.577711133E-4	4.188292859E-3
13.66	5.943293545E-2	-1.153860758E-3	2.550611983E-3
13.67	6.041311586E-2	-1.337086067E-3	2.386075411E-3
13.68	6.344553527E-2	-4.361939373E-3	2.511819135E-3
13.69	6.597533485E-2	-5.748829114E-3	1.411202420E-3
13.700000000000001	6.704773509E-2	-4.233112737E-3	1.412431154E-3
13.71	6.640053594E-2	-2.415243193E-3	1.866189394E-3
13.72	6.531111886E-2	-1.790340997E-3	1.118115957E-3
13.73	6.267730539E-2	9.577387078E-4	6.040425946E-4
13.74	6.043436271E-2	3.447699283E-3	7.063829657E-4
13.75	5.814907739E-2	4.443267549E-3	1.054253261E-3
13.76	5.557430487E-2	4.468903820E-3	1.117277167E-3
13.77	5.327111924E-2	3.567196325E-3	1.210023317E-3
13.780000000000001	5.118950093E-2	1.720404819E-3	2.561284456E-3
13.790000000000001	4.893033349E-2	9.711157234E-4	1.681291017E-3
13.8	4.665033421E-2	-1.334922418E-3	5.527801772E-4
13.81	4.268740191E-2	-1.919104012E-3	2.134159830E-3
13.82	3.956153357E-2	-1.284414932E-3	2.915650759E-3
13.83	3.706636246E-2	-1.104701777E-3	1.856201009E-3
13.84	3.185147604E-2	-1.499290417E-4	2.897876866E-3
13.85	3.031443389E-2	3.718976569E-4	1.416340944E-3
13.86	3.016515517E-2	1.751229269E-6	1.844922457E-3
13.870000000000001	3.032663116E-2	-3.670624444E-4	1.583215857E-3
13.88	3.226193960E-2	-1.291488996E-4	1.048071349E-3
13.89	3.419465552E-2	-1.052584681E-3	2.948689660E-4
13.9	3.573728297E-2	-1.002180649E-3	-4.259005704E-4
13.91	3.656728611E-2	8.250355427E-4	-1.434298190E-3
13.92	3.630868384E-2	2.785932842E-3	-2.506831681E-3
13.93	3.584074123E-2	4.037518064E-3	-2.707785216E-3
13.94	3.517056668E-2	6.586763233E-3	-3.315085020E-3
13.950000000000001	3.405918583E-2	4.985426686E-3	-3.226075417E-3
13.96	3.293512989E-2	9.778997436E-4	-2.127611924E-3
13.97	3.372802901E-2	-1.075959451E-3	-2.842064914E-3
13.98	3.150244966E-2	-2.982028952E-3	-2.909936062E-3
13.99	2.915356521E-2	-4.771223128E-3	-2.858889613E-3
14.0	2.559024216E-2	-5.690077632E-3	-2.925858408E-3
14.01	2.055157328E-2	-4.893911883E-3	-2.814615813E-3
14.02	1.511290425E-2	-2.787206277E-3	-2.301672545E-3
14.030000000000001	9.156541932E-3	-1.079481023E-3	-1.963970146E-3
14.040000000000001	2.530483687E-3	1.418883508E-3	-1.721157493E-3
14.05	-3.658193380E-3	3.795538597E-3	-1.134082486E-3
14.06	-8.052736723E-3	3.473091939E-3	-2.488505374E-3
14.07	-1.186974979E-2	2.470651612E-3	-3.121584501E-3
14.08	-1.519098616E-2	1.852947816E-3	-1.753157225E-3
14.09	-1.584603971E-2	9.153779299E-4	-1.222532835E-3
14.1	-2.040696506E-2	6.978228754E-5	-1.019176504E-3
14.11	-2.345520595E-2	-1.195096603E-3	-7.657911007E-4
14.120000000000001	-2.568033175E-2	5.999702203E-4	-2.058891082E-3
14.13	-2.913858569E-2	1.531035561E-3	-1.418702638E-3
14.14	-3.138747192E-2	9.247637243E-4	-2.741774168E-3
14.15	-3.047422803E-2	-1.114137575E-3	-3.935106840E-3
14.16	-2.890933611E-2	-1.262528382E-3	-4.718268428E-3
14.17	-2.685594022E-2	-4.243515615E-3	-6.390717818E-3
14.18	-2.366279497E-2	-7.542951366E-3	-4.700461797E-3
14.19	-2.216153063E-2	-2.731338259E-3	-3.955516421E-4
14.200000000000001	-2.258466429E-2	3.650706306E-3	8.700193498E-4
14.21	-1.730822659E-2	-6.022443280E-3	5.849210176E-3
14.22	-1.922078871E-2	-2.538537885E-3	2.209115843E-3
14.23	-2.339911528E-2	8.172380287E-3	-5.321681033E-3
14.24	-1.958290970E-2	4.968283668E-3	-8.796869185E-4
14.25	-2.507361305E-2	3.079405853E-3	3.736190963E-3
14.26	-2.835566801E-2	4.414430894E-3	3.170230604E-3
14.27	-2.958262837E-2	1.714658931E-3	2.486974153E-3
14.280000000000001	-3.397800064E-2	2.323935375E-3	5.013142977E-3
14.290000000000001	-3.707480558E-2	-2.367503727E-3	5.379141045E-3
14.3	-3.971533397E-2	-7.797962892E-3	4.642637493E-3
14.31	-4.483248031E-2	-6.002694108E-3	3.683114866E-3
14.32	-5.153400081E-2	-2.571557692E-3	2.292861275E-3
14.33	-5.814644200E-2	-1.644844294E-3	1.413662475E-3
14.34	-6.370176254E-2	-1.132680133E-3	1.250467693E-3
14.35	-6.759316599E-2	4.944328974E-5	4.737676714E-4
14.36	-7.148690140E-2	2.142933652E-3	5.930151079E-4
14.370000000000001	-7.307398348E-2	1.351761848E-3	1.950512335E-3
14.38	-7.254073813E-2	-6.885353773E-4	2.606188462E-3
14.39	-7.270929253E-2	-3.159553215E-3	1.241570864E-3
14.4	-7.267428915E-2	-8.507150534E-4	2.334929033E-3
14.41	-7.293904936E-2	1.327594681E-3	2.495231969E-3
14.42	-7.244113600E-2	8.818598540E-4	1.465283785E-3
14.43	-7.049436247E-2	9.328087122E-4	2.716638002E-3
14.44	-6.995209992E-2	3.219972241E-3	3.089600954E-3
14.450000000000001	-6.608078478E-2	2.404027657E-3	3.087979708E-3
14.46	-6.177363564E-2	-5.027334330E-4	3.420564795E-3
14.47	-5.635131313E-2	-3.687425428E-3	4.056840104E-3
14.48	-5.120573296E-2	-5.423201611E-3	4.313479615E-3
14.49	-4.847256699E-2	-5.353138768E-3	4.150046763E-3
14.5	-4.642397829E-2	-5.517513825E-3	5.202371034E-3
14.51	-4.524492061E-2	-4.598947272E-3	5.753213320E-3
14.52	-4.589188562E-2	-2.646697945E-3	3.860558335E-3
14.530000000000001	-4.564831635E-2	6.620062944E-4	2.702830806E-3
14.540000000000001	-4.635630319E-2	2.300279866E-3	3.620305405E-3
14.55	-4.446082176E-2	2.606390571E-3	2.929184903E-3
14.56	-4.344785073E-2	2.131739326E-3	1.540897442E-3
14.57	-4.293122819E-2	2.137180674E-3	8.943335726E-4
14.58	-4.158130917E-2	1.773653130E-3	-1.192315345E-4
14.59	-3.985840674E-2	-5.732713265E-4	-1.586385489E-3
14.6	-3.935972143E-2	-3.198314115E-3	1.098293846E-3
14.61	-3.878632224E-2	-3.200296610E-4	2.279645357E-3
14.620000000000001	-3.909750852E-2	2.961150109E-3	2.944627152E-3
14.63	-3.946693993E-2	2.181885883E-3	5.263482538E-4
14.64	-3.917625328E-2	2.473786958E-4	6.833664481E-4
14.65	-3.644673684E-2	3.340490731E-4	1.274024425E-3
14.66	-3.246672471E-2	1.382393949E-4	7.960029590E-4
14.67	-2.795438087E-2	-2.038492069E-3	-3.575693037E-4
14.68	-2.390032566E-2	-5.585740611E-3	-1.096666899E-3
14.69	-2.072772062E-2	-6.007886037E-3	-1.287287321E-3
14.700000000000001	-1.864989191E-2	-3.635366259E-3	-1.643594174E-3
14.71	-1.803789760E-2	-1.807517310E-3	-1.452228051E-3
14.72	-1.727250668E-2	2.258159560E-4	-5.464171089E-4
14.73	-1.673532219E-2	2.650897861E-3	-5.189671373E-4
14.74	-1.597724146E-2	5.925964162E-3	-7.456003096E-4
14.75	-1.473991907E-2	5.855095357E-3	-3.866690245E-3
14.76	-1.175387016E-2	4.416659072E-3	-3.144663420E-3
14.77	-6.887433485E-3	2.416443703E-4	-1.344691451E-3
14.780000000000001	-3.689634304E-3	-5.981694655E-4	-1.975986742E-3
14.790000000000001	-1.092212234E-3	-1.615014817E-3	-2.407247117E-3
14.8	8.484009319E-4	-3.624178762E-3	-2.419336882E-3
14.81	3.115654825E-3	-3.198817179E-3	-2.727049437E-3
14.82	5.148044764E-3	-1.425959572E-3	-3.048590269E-3
14.83	6.642608317E-3	9.035422360E-5	-2.802319065E-3
14.84	9.471580027E-3	4.149555588E-4	-2.359854709E-3
14.85	1.271279039E-2	3.065423490E-4	-2.252581158E-3
14.86	1.548557205E-2	5.761984596E-4	-2.396166611E-3
14.870000000000001	1.929586077E-2	5.198612912E-6	-2.198351469E-3
14.88	2.414881194E-2	-1.729161844E-3	-1.845396605E-3
14.89	2.727942004E-2	-1.011889527E-3	-1.673189867E-3
14.9	2.846690239E-2	4.129992011E-4	-8.887116891E-4
14.91	2.907014155E-2	2.979180560E-3	-1.049250212E-3
14.92	3.016922765E-2	4.085833508E-3	-1.244977148E-3
14.93	3.100165228E-2	2.812705524E-3	-1.632055645E-3
14.94	3.165932679E-2	2.555119440E-3	-2.216394987E-3
14.950000000000001	3.352374041E-2	1.681714252E-3	-4.138811674E-3
14.96	3.566088817E-2	-5.760974329E-4	-4.484907854E-3
14.97	3.711954878E-2	-2.725834386E-3	-4.078441078E-3
14.98	3.810302094E-2	-3.286676290E-3	-2.477868466E-3
14.99	3.836178025E-2	-3.587353836E-3	-2.194010745E-3
15.0	3.829868264E-2	-3.412037147E-3	-1.897678915E-3
15.01	3.800817482E-2	-1.619743182E-3	2.059638769E-4
15.02	3.740081394E-2	4.539677949E-4	1.679231081E-3
15.030000000000001	3.750577593E-2	2.428130701E-3	2.268430147E-3
15.040000000000001	3.792963415E-2	2.891818243E-3	3.123353345E-4
15.05	3.855889263E-2	2.852665701E-3	6.780346713E-4
15.06	3.990246916E-2	1.942970201E-3	4.562200640E-4
15.07	4.336998188E-2	2.134033258E-3	9.660708368E-4
15.08	4.485558392E-2	9.458228374E-4	2.274561771E-3
15.09	4.732660377E-2	1.457809106E-3	2.235623750E-3
15.1	4.908337200E-2	1.954078868E-3	2.798921022E-3
15.11	5.172681154E-2	1.412107522E-3	2.972375542E-3
15.120000000000001	5.374378972E-2	1.913906663E-3	3.589481895E-3
15.13	5.568628982E-2	1.710324222E-3	2.563451769E-3
15.14	5.933940550E-2	-5.110516775E-4	2.112392967E-3
15.15	6.333174193E-2	-2.469256624E-3	2.463399324E-3
15.16	6.648634159E-2	-2.882782921E-3	2.116547975E-3
15.17	6.878746859E-2	-3.228434863E-3	1.857131136E-3
15.18	6.942960170E-2	-3.081920581E-3	1.333107536E-3
15.19	7.035425564E-2	-2.772945163E-3	4.661041329E-4
15.200000000000001	6.961607646E-2	-6.784036464E-4	1.083943557E-3
15.21	6.706037485E-2	2.344237611E-3	1.509744081E-3
15.22	6.539784634E-2	3.389067546E-3	3.011837938E-5
15.23	6.211969817E-2	3.493455395E-3	9.054960344E-4
15.24	5.959047735E-2	2.262894692E-3	-4.338865611E-4
15.25	5.632951537E-2	3.047084853E-3	3.441713627E-4
15.26	5.379661433E-2	1.615443157E-3	1.816419839E-3
15.27	5.058378912E-2	-2.704725555E-4	1.445836860E-3
15.280000000000001	4.625203220E-2	-6.666391143E-4	1.312789142E-3
15.290000000000001	4.190472743E-2	-5.381684969E-4	1.378090848E-3
15.3	3.754082763E-2	-3.378419130E-4	1.348458681E-3
15.31	3.285719418E-2	2.555364818E-4	2.009641084E-3
15.32	2.904517192E-2	8.312208810E-4	1.976744266E-3
15.33	2.637335934E-2	1.446846045E-3	1.280153802E-3
15.34	2.490904288E-2	1.227296577E-3	2.329531342E-3
15.35	2.481637514E-2	3.221712513E-4	2.443612088E-3
15.36	2.796402240E-2	-1.554479107E-3	2.996140871E-3
15.370000000000001	2.994450593E-2	-1.168534562E-3	2.667249773E-4
15.38	2.992828575E-2	-1.186662390E-3	-4.727467243E-4
15.39	3.036041941E-2	-1.570069144E-3	-1.826562436E-3
15.4	3.161605308E-2	9.489463335E-4	-4.162747875E-3
15.41	3.246893832E-2	3.004742168E-3	-2.994843540E-3
15.42	3.395273148E-2	3.680071530E-3	-2.384809856E-3
15.43	3.551111960E-2	4.117479369E-3	-1.885241118E-3
15.44	3.697483742E-2	3.049090996E-3	-2.290552702E-3
15.450000000000001	3.659914277E-2	-4.897873318E-4	-2.580427309E-3
15.46	3.642334479E-2	-2.582373708E-3	-2.747493203E-3
15.47	3.603942060E-2	-2.846178189E-3	-2.976147991E-3
15.48	3.326117392E-2	-3.069440121E-3	-2.652023376E-3
15.49	2.923945868E-2	-3.363347754E-3	-2.388781157E-3
15.5	2.392471546E-2	-2.141155556E-3	-3.184240904E-3
15.51	1.840919310E-2	1.121078774E-3	-2.632781674E-3
15.52	1.272989146E-2	1.808390403E-3	-2.367187962E-3
15.530000000000001	8.253994225E-3	1.473706558E-3	-2.889841643E-3
15.540000000000001	4.714596097E-3	1.667607091E-3	-2.307181957E-3
15.55	-3.261790759E-4	2.578708245E-3	-2.264052603E-3
15.56	-4.058421146E-3	1.691276951E-3	-2.838661121E-3
15.57	-7.941222436E-3	-9.431780740E-4	-2.020911830E-3
15.58	-1.336296520E-2	-7.134452014E-4	-1.446016875E-3
15.59	-1.771389997E-2	1.973615632E-3	-1.335180845E-3
15.6	-2.082172304E-2	2.820843801E-3	-2.150832351E-3
15.610000000000001	-2.368535123E-2	1.872726653E-3	-2.875453207E-3
15.620000000000001	-2.619055095E-2	1.174271808E-3	-2.461198004E-3
15.63	-2.767298245E-2	1.459959220E-3	-1.890361285E-3
15.64	-2.759256487E-2	8.372870993E-4	-2.539442837E-3
15.65	-2.643277456E-2	-3.285842006E-3	-2.294615355E-3
15.66	-2.652683105E-2	-3.094939046E-3	4.421176806E-4
15.67	-2.915946579E-2	-4.056697623E-3	2.886433189E-3
15.68	-2.449485397E-2	-5.914800271E-3	3.190404329E-3
15.69	-2.372208932E-2	-1.951996350E-4	-1.434674800E-2
15.700000000000001	-2.971718815E-2	4.719921395E-3	1.739337659E-3
15.71	-2.437284565E-2	-3.344959572E-3	-3.581293669E-3
15.72	-2.599266654E-2	1.488837496E-3	2.099114809E-3
15.73	-2.708157276E-2	5.862626988E-3	1.021540538E-3
15.74	-2.722419329E-2	1.441377564E-3	-1.255285023E-3
15.75	-3.003993181E-2	-8.498041325E-4	1.769058724E-3
15.76	-3.184427724E-2	-8.080943736E-4	5.225888643E-3
15.77	-3.310708559E-2	-2.734867780E-4	4.586507234E-3
15.780000000000001	-3.633738339E-2	6.644357826E-4	2.012829935E-3
15.790000000000001	-3.858953765E-2	-1.194476798E-3	1.790822612E-3
15.8	-4.018875220E-2	-4.150131255E-3	1.603393590E-3
15.81	-4.370513510E-2	-1.317491629E-3	-9.802883821E-4
15.82	-4.625008252E-2	-1.253717285E-3	4.694359822E-4
15.83	-4.713155365E-2	-3.664249584E-3	2.929955873E-3
15.84	-5.076650394E-2	-2.253350581E-3	1.318052089E-3
15.85	-5.469382023E-2	3.001526121E-4	5.270858848E-4
15.860000000000001	-5.781869447E-2	1.719830528E-3	2.350446138E-3
15.870000000000001	-5.983365214E-2	1.666391537E-3	1.131993685E-3
15.88	-5.994854833E-2	1.419425464E-3	6.384884186E-4
15.89	-6.058580936E-2	1.346787957E-3	2.223356487E-3
15.9	-6.188263752E-2	1.281106125E-3	3.019611855E-3
15.91	-6.211321241E-2	-2.630384311E-4	2.702725119E-3
15.92	-6.214207559E-2	-1.573675033E-3	2.655404731E-3
15.93	-6.328970524E-2	-7.156462372E-4	3.318526353E-3
15.94	-6.344720600E-2	-5.635830234E-4	3.481269976E-3
15.950000000000001	-6.191813982E-2	-3.568482801E-3	3.234559450E-3
15.96	-6.115673095E-2	-3.129605707E-3	3.708429621E-3
15.97	-6.119260090E-2	-2.710794095E-3	4.160288097E-3
15.98	-5.935926628E-2	-2.356188438E-3	3.526470917E-3
15.99	-5.781685777E-2	-2.127999579E-3	3.688540548E-3
16.0	-5.647123611E-2	-2.942159578E-3	3.645631227E-3
16.01	-5.597267187E-2	-1.341108784E-3	2.245484743E-3
16.02	-5.570382313E-2	1.038210023E-3	2.664424071E-4
16.03	-5.406604542E-2	2.104949180E-3	7.871570982E-4
16.04	-5.153338338E-2	2.330346196E-3	2.240709543E-3
16.05	-4.902575350E-2	1.999917036E-3	1.555794504E-3
16.06	-4.646191960E-2	2.037922397E-3	2.035340461E-4
16.07	-4.270419624E-2	1.661915361E-3	1.684130959E-3
16.080000000000002	-3.922589755E-2	-7.615197747E-4	1.575292681E-4
16.09	-3.569397068E-2	-3.013027117E-3	1.792317781E-3
16.1	-3.229803479E-2	-4.129684374E-3	4.383737001E-3
16.11	-2.920981071E-2	9.073287866E-5	2.011333771E-4
16.12	-2.804193283E-2	-1.430969295E-3	-4.324588381E-4
16.13	-2.569147015E-2	-1.293565386E-3	-5.298473901E-4
16.14	-2.411808287E-2	4.407722363E-4	-8.025888751E-4
16.15	-2.169114894E-2	1.100977108E-3	-1.263903227E-3
16.16	-1.991522497E-2	5.570145399E-4	-4.860864546E-4
16.17	-1.949568907E-2	-1.353437718E-3	5.464447185E-4
16.18	-1.849447010E-2	-2.730097891E-3	3.125585649E-4
16.19	-1.746100856E-2	-2.036357954E-3	-2.720527391E-4
16.2	-1.752120394E-2	-7.563684903E-4	-7.490054288E-4
16.21	-1.792075879E-2	-1.245148882E-3	-1.660593596E-3
16.22	-1.856776899E-2	-9.503750055E-4	-2.472838011E-3
16.23	-2.001294406E-2	1.938453098E-3	-2.593078211E-3
16.240000000000002	-1.870033095E-2	2.959270687E-3	-2.485418481E-3
16.25	-1.939712054E-2	1.239074364E-3	-2.177351561E-3
16.26	-1.723961930E-2	1.513381640E-4	-3.700216385E-3
16.27	-1.574490868E-2	-4.722904476E-4	-2.483275223E-3
16.28	-1.352717578E-2	-8.652224192E-4	-2.329778151E-3
16.29	-1.118099578E-2	-2.111698838E-3	-2.175759427E-3
16.3	-8.871059926E-3	-1.886220381E-3	-2.746389952E-3
16.31	-7.142063105E-3	-2.830630093E-4	-2.559050169E-3
16.32	-4.345110521E-3	5.031148710E-4	-2.610446857E-3
16.330000000000002	-2.070931952E-4	3.774928089E-4	-2.272896138E-3
16.34	4.512043780E-3	2.751287989E-4	-1.910185622E-3
16.35	9.579616724E-3	6.217536778E-4	-2.677267637E-3
16.36	1.395832384E-2	1.106914923E-3	-2.633627501E-3
16.37	1.863218927E-2	5.838296265E-4	-2.247446623E-3
16.38	2.305193600E-2	-2.123078329E-4	-2.474072607E-3
16.39	2.625158754E-2	-8.560278407E-4	-1.815236404E-3
16.4	3.012263441E-2	4.939991684E-4	-2.954023924E-3
16.41	3.066933704E-2	3.833332112E-4	-4.032311685E-3
16.42	3.276748540E-2	6.073282009E-4	-3.339336456E-3
16.43	3.312975013E-2	9.939082415E-4	-2.934263792E-3
16.44	3.406674468E-2	1.260718301E-3	-2.907827940E-3
16.45	3.651283447E-2	5.993673764E-4	-9.411094313E-4
16.46	3.829267798E-2	-1.623201020E-3	-8.746856496E-4
16.47	3.946803574E-2	-3.159020967E-3	-6.938758404E-4
16.48	3.989072495E-2	-2.281125191E-3	-2.831230932E-4
16.490000000000002	3.943100109E-2	-1.106697143E-3	4.454720369E-5
16.5	3.815144324E-2	-9.074700921E-4	3.086103533E-4
16.51	3.712615096E-2	1.418926463E-3	-9.612902662E-5
16.52	3.638624632E-2	2.556268618E-3	7.025922869E-4
16.53	3.668756979E-2	2.492536874E-3	4.934451514E-4
16.54	3.653712754E-2	2.040603159E-3	4.383863542E-4
16.55	3.712423706E-2	1.708338007E-3	1.456147585E-3
16.56	3.924933040E-2	1.419119135E-3	1.407224092E-3
16.57	3.972912693E-2	-3.478024452E-4	1.290398989E-3
16.580000000000002	4.184784982E-2	-7.507372025E-4	2.234371729E-3
16.59	4.357302649E-2	-1.277407371E-3	4.440321062E-4
16.6	4.653595407E-2	-5.431436213E-5	1.051309305E-3
16.61	4.853353835E-2	-3.834585554E-4	1.693140672E-3
16.62	4.989515706E-2	-1.225924287E-3	1.200760667E-3
16.63	5.109227991E-2	-3.237521601E-4	5.318618169E-4
16.64	5.322086197E-2	3.626968059E-4	5.781124008E-4
16.65	5.657316844E-2	-1.300908268E-3	1.220431873E-3
16.66	5.799074043E-2	-2.110993637E-3	1.485671334E-3
16.67	5.723265970E-2	-1.243234083E-3	1.188928041E-3
16.68	5.908370034E-2	-8.450279608E-4	1.533192696E-3
16.69	5.813285716E-2	-3.104528886E-4	5.460180376E-4
16.7	5.645324618E-2	8.433036255E-4	-6.718936741E-5
16.71	5.669395769E-2	1.610301943E-3	3.948626662E-4
16.72	5.586987936E-2	2.501681194E-3	9.184850786E-4
16.73	5.433050239E-2	1.356486276E-3	1.467572603E-3
16.740000000000002	5.416105839E-2	4.990712201E-4	1.637490522E-3
16.75	5.380285353E-2	3.732001053E-4	2.009838846E-3
16.76	5.237140237E-2	-3.678780806E-4	2.172757304E-3
16.77	5.036556509E-2	-1.648654587E-3	1.626790036E-3
16.78	4.857165454E-2	-2.301163104E-3	1.481822617E-3
16.79	4.711471023E-2	-2.409961372E-4	1.943329600E-3
16.8	4.477514887E-2	3.235313744E-4	2.457791719E-3
16.81	4.135048056E-2	2.935126767E-3	-5.504473707E-5
16.82	3.925603294E-2	4.074766830E-3	1.576787386E-3
16.830000000000002	3.886255693E-2	1.671343456E-3	1.844699788E-4
16.84	3.692603228E-2	2.006492959E-3	1.622359816E-3
16.85	3.675440917E-2	1.940822469E-3	4.446976154E-4
16.86	3.738672042E-2	-1.745428011E-4	4.493706746E-4
16.87	3.675303781E-2	-1.701387569E-3	1.897253130E-4
16.88	3.640865707E-2	-1.753676936E-3	-1.028078642E-3
16.89	3.532280433E-2	-1.291507554E-3	-1.005232844E-3
16.9	3.394900129E-2	-3.314611025E-4	-7.393000359E-4
16.91	3.302963193E-2	2.043300874E-4	-1.048275345E-3
16.92	3.128662889E-2	7.776742288E-4	-1.319351860E-3
16.93	2.899601662E-2	2.697047934E-3	-1.360243407E-3
16.94	2.878532851E-2	1.981851801E-3	-1.014898863E-3
16.95	2.777768647E-2	-6.238151363E-4	-2.115108417E-3
16.96	2.572788576E-2	-1.063139825E-3	-3.153261547E-3
16.97	2.314880156E-2	-1.098622784E-3	-2.463644591E-3
16.98	2.088158216E-2	-1.915467901E-4	-1.733483277E-3
16.990000000000002	1.776564892E-2	-2.502902816E-4	-1.085629374E-3
17.0	1.484800959E-2	-1.855711191E-4	-1.301802244E-3
17.01	1.204621935E-2	4.057006986E-4	-2.827776518E-3
17.02	8.671141581E-3	2.225402708E-3	-2.531659230E-3
17.03	6.440964021E-3	1.800729301E-3	-1.672096916E-3
17.04	4.492047760E-3	1.233057408E-4	-1.774646686E-3
17.05	2.895862235E-3	-9.705668161E-4	-1.694034437E-3
17.06	1.494660826E-3	-1.959530896E-3	-1.370235794E-3
17.07	-6.353689981E-4	-2.643735058E-3	-1.489029594E-3
17.080000000000002	-3.528350802E-3	-1.484377786E-3	-1.598700133E-3
17.09	-5.923318551E-3	-1.158523112E-4	-2.161234465E-3
17.1	-9.171809233E-3	1.856081199E-3	-2.606400217E-3
17.11	-1.155169917E-2	2.659617864E-3	-1.868160309E-3
17.12	-1.335415429E-2	1.420076534E-3	-1.914900389E-3
17.13	-1.505764400E-2	2.117173459E-3	-2.524969381E-3
17.14	-1.488302627E-2	1.080230504E-3	-2.358202343E-3
17.150000000000002	-1.474221742E-2	-4.186704307E-4	-2.877539244E-3
17.16	-1.395155630E-2	-3.727648660E-3	-3.534163084E-3
17.17	-1.573818814E-2	-1.991004798E-3	-2.972750085E-3
17.18	-1.783480881E-2	-2.499277743E-3	-3.664458085E-3
17.19	-1.857159880E-2	-4.573728381E-3	-7.839592099E-4
17.2	-2.236345034E-2	1.518146122E-4	1.039243531E-2
17.21	-2.781886934E-2	5.249486802E-3	1.348660780E-2
17.22	-2.858392924E-2	6.730954797E-4	1.412031615E-3
17.23	-2.691453076E-2	-4.556617692E-3	-3.424833861E-3
17.240000000000002	-3.302913106E-2	2.431003794E-3	1.142121706E-3
17.25	-3.208841465E-2	7.961239329E-4	-7.338042554E-5
17.26	-3.520259332E-2	-2.732887851E-3	-3.034250061E-3
17.27	-4.085587001E-2	-7.672671526E-4	-2.179163542E-3
17.28	-4.220277309E-2	6.165231109E-4	2.538722170E-3
17.29	-4.663477726E-2	2.998293111E-3	1.665141798E-3
17.3	-4.956156886E-2	2.071298555E-3	7.552923296E-4
17.31	-4.904844558E-2	-1.755401745E-3	8.953298662E-4
17.32	-4.974503910E-2	-8.649142227E-4	1.761548245E-3
17.330000000000002	-4.962699590E-2	3.549844004E-4	3.084911888E-3
17.34	-4.863702691E-2	-2.592031464E-3	3.370076570E-3
17.35	-4.914383209E-2	-5.858488485E-3	2.817937288E-3
17.36	-4.963819443E-2	-3.180870485E-3	1.730788127E-3
17.37	-5.056169282E-2	2.840646608E-4	2.832573679E-3
17.38	-5.183351591E-2	1.870706100E-3	4.535574904E-3
17.39	-5.253016062E-2	2.436497758E-3	4.203939277E-3
17.400000000000002	-5.325452633E-2	2.377910335E-3	3.881479124E-3
17.41	-5.254421145E-2	2.532346850E-3	4.838318412E-3
17.42	-5.131757295E-2	1.298451021E-3	3.105241213E-3
17.43	-5.008984973E-2	-2.756441189E-3	1.759265313E-3
17.44	-4.939447816E-2	-5.328952463E-3	4.065232512E-3
17.45	-5.086416803E-2	-4.437508994E-3	2.385833911E-3
17.46	-5.147286104E-2	-4.446037240E-3	2.126640675E-3
17.47	-5.325611081E-2	-3.296208862E-3	2.793362607E-3
17.48	-5.622039135E-2	-1.165259342E-3	2.801371141E-3
17.490000000000002	-5.807117084E-2	2.963339476E-4	2.341557894E-3
17.5	-5.855292265E-2	1.809024694E-3	2.065351206E-3
17.51	-5.774149303E-2	1.353643707E-3	3.068700428E-3
17.52	-5.685679948E-2	1.463610382E-4	6.775678728E-4
17.53	-5.485045946E-2	2.679865510E-4	6.823362444E-4
17.54	-5.266790426E-2	1.274509326E-3	7.167638872E-4
17.55	-5.096063002E-2	1.129958206E-4	1.974766274E-3
17.56	-4.908131871E-2	1.661697635E-4	9.384238989E-4
17.57	-4.594538884E-2	1.177948743E-3	3.833240249E-4
17.580000000000002	-4.324928611E-2	1.899057538E-3	9.307924966E-4
17.59	-3.966203313E-2	6.137088886E-4	1.973480580E-3
17.6	-3.576011214E-2	-1.238929043E-3	3.325471717E-3
17.61	-3.210898852E-2	-1.117394373E-3	3.499604616E-3
17.62	-2.931677497E-2	1.037006090E-5	2.109662447E-3
17.63	-2.736522451E-2	-1.535326028E-3	1.597400879E-3
17.64	-2.503095424E-2	-3.292175761E-3	1.000087476E-3
17.650000000000002	-2.345729518E-2	-2.939122120E-3	-1.536994379E-4
17.66	-2.226616533E-2	-6.509331684E-4	-1.341066455E-4
17.67	-2.121383882E-2	8.799444587E-4	-1.259821501E-3
17.68	-2.159882820E-2	-1.102980523E-4	-2.954660322E-4
17.69	-2.142069972E-2	7.497001142E-4	-7.139383223E-4
17.7	-2.164392132E-2	1.108179373E-3	-8.776283038E-5
17.71	-2.245185869E-2	1.346002070E-3	-2.246166692E-3
17.72	-2.134445095E-2	-1.692953644E-4	-3.670803186E-3
17.73	-2.046143610E-2	-9.266646699E-4	-2.624426049E-3
17.740000000000002	-2.019984788E-2	-3.156241326E-4	-1.922033873E-3
17.75	-2.022283262E-2	1.634076686E-4	-2.285193053E-3
17.76	-2.015180817E-2	-7.833969748E-5	-2.331302852E-3
17.77	-1.876722816E-2	-2.853820770E-4	-2.248959452E-3
17.78	-1.726482637E-2	6.351328951E-4	-2.739925217E-3
17.79	-1.578407330E-2	1.188358388E-3	-2.934171436E-3
17.8	-1.256004585E-2	-9.022987931E-4	-1.989668455E-3
17.81	-9.034440150E-3	-1.353175148E-3	-1.934870329E-3
17.82	-4.091549804E-3	-1.091117014E-3	-1.543536078E-3
17.830000000000002	2.706964267E-4	-9.393015308E-4	-9.756596520E-4
17.84	5.852779114E-3	-1.434951598E-3	-1.584718336E-3
17.85	9.715022024E-3	-2.198078774E-3	-1.620436125E-3
17.86	1.440305010E-2	4.615722293E-5	-2.191168796E-3
17.87	1.768393317E-2	9.256061145E-4	-2.066748888E-3
17.88	2.059659332E-2	1.217058016E-3	-1.876026616E-3
17.89	2.450679207E-2	1.743006006E-3	-1.547735777E-3
17.900000000000002	2.643958235E-2	2.086430386E-3	-1.922339049E-3
17.91	2.771108567E-2	1.723661285E-3	-2.191769704E-3
17.92	2.885512740E-2	3.022213571E-4	-1.965470224E-3
17.93	2.926197344E-2	-5.787925379E-4	-2.045025129E-3
17.94	2.927344246E-2	-6.734341608E-5	-2.297392053E-3
17.95	2.887420142E-2	4.005824040E-5	-2.297991362E-3
17.96	2.831127667E-2	-2.964706271E-4	-3.242930021E-3
17.97	2.843511661E-2	-1.260650247E-3	-2.968160674E-3
17.98	2.764178573E-2	-1.426504249E-3	-2.249193353E-3
17.990000000000002	2.691919172E-2	-6.264869421E-4	-1.263636198E-3
18.0	2.812610483E-2	-9.869885048E-5	-1.069793063E-3
18.01	2.783139651E-2	7.735712255E-4	-1.197113901E-3
18.02	2.900214517E-2	6.363103242E-4	-3.875909712E-4
18.03	2.887994611E-2	9.550267906E-4	9.843839739E-4
18.04	3.065796448E-2	1.955455406E-3	1.169195225E-3
18.05	3.334801089E-2	2.272956361E-3	1.371576750E-3
18.06	3.472216060E-2	2.125354923E-3	1.901220324E-3
18.07	3.698252554E-2	1.454323969E-3	1.655954960E-3
18.080000000000002	4.087912501E-2	1.239842659E-3	9.685866152E-4
18.09	4.479870641E-2	1.726151303E-3	5.869115923E-4
18.1	4.690330469E-2	2.802449913E-4	2.872601488E-5
18.11	5.116805041E-2	-7.540501206E-4	-2.084638798E-7
18.12	5.481340408E-2	-2.051917691E-3	7.001275686E-4
18.13	5.657246391E-2	-1.685077354E-3	2.627446418E-4
18.14	5.937977993E-2	-1.421362564E-3	3.030599687E-4
18.150000000000002	6.060182527E-2	-1.869698400E-3	1.488708472E-4
18.16	5.973629872E-2	-5.477258586E-4	2.266455593E-4
18.17	5.877337301E-2	1.652600810E-3	5.426541307E-5
18.18	5.759121144E-2	2.368371531E-3	3.625883196E-4
18.19	5.623464644E-2	1.355887805E-3	8.078668641E-4
18.2	5.399195748E-2	8.174433027E-4	4.618577850E-4
18.21	4.997148875E-2	1.196333833E-3	2.924423947E-4
18.22	4.762038816E-2	1.090684531E-3	1.494493323E-3
18.23	4.676850099E-2	-1.531059729E-4	2.501411859E-3
18.240000000000002	4.528169287E-2	-1.491662306E-3	2.227156354E-3
18.25	4.362299994E-2	-1.629060296E-3	2.126207322E-3
18.26	4.168339688E-2	-1.415110154E-3	1.962776845E-3
18.27	4.035666972E-2	-1.793245662E-3	3.277593932E-3
18.28	3.939887987E-2	-6.889888824E-4	2.541002313E-3
18.29	3.883273864E-2	-3.583368211E-4	1.957875643E-3
18.3	3.930945217E-2	-2.769926699E-4	1.543627777E-3
18.31	3.963237058E-2	1.318390932E-3	1.656297723E-3
18.32	3.983830476E-2	2.127036199E-3	1.299382601E-3
18.330000000000002	4.077548885E-2	9.490888269E-4	1.546670351E-3
18.34	4.089045297E-2	1.757002560E-3	4.427838525E-4
18.35	4.189059287E-2	1.911820061E-3	1.382680585E-4
18.36	4.395714576E-2	1.405179126E-3	-8.439523886E-4
18.37	4.532020847E-2	2.858295936E-4	-7.850201865E-4
18.38	4.649265253E-2	-8.103625028E-4	7.008947466E-4
18.39	4.716501863E-2	-9.297440844E-4	3.933809681E-4
18.400000000000002	4.573182629E-2	-3.327480147E-4	-2.085842009E-3
18.41	4.420781755E-2	-9.382526566E-5	-2.173174467E-3
18.42	4.122967239E-2	-4.642606860E-4	-5.984730875E-4
18.43	3.737071325E-2	6.262098779E-4	-1.732984503E-3
18.44	3.347547316E-2	1.785910472E-3	-1.115244475E-3
18.45	3.027969265E-2	1.239074364E-3	-1.907270994E-3
18.46	2.707816625E-2	-1.239402994E-3	-1.163214293E-3
18.47	2.229023551E-2	-4.723125561E-4	-1.924552515E-3
18.48	1.881388600E-2	-1.246369930E-3	5.761030025E-5
18.490000000000002	1.541754108E-2	-1.043383881E-4	4.255853102E-5
18.5	1.171805653E-2	-1.729095632E-4	-1.416815367E-3
18.51	9.515437235E-3	5.872130511E-4	-2.111293720E-3
18.52	7.146492492E-3	1.820588565E-3	-1.074182270E-3
18.53	4.328653155E-3	1.378704950E-3	-8.080469038E-4
18.54	2.436658977E-3	7.798258970E-5	-2.658995238E-3
18.55	1.542581756E-3	2.145471463E-4	-3.224221053E-3
18.56	1.001901747E-3	-5.642653033E-4	-2.335075560E-3
18.57	-3.110616803E-5	-1.408413892E-3	-2.028507812E-3
18.580000000000002	-5.459212263E-5	-7.987506432E-4	-2.746813097E-3
18.59	-1.211721250E-3	-1.043078706E-3	-2.270239439E-3
18.6	-2.094702782E-3	-7.806737273E-4	-2.161997404E-3
18.61	-3.483339805E-3	3.143955777E-5	-1.977175322E-3
18.62	-5.831903864E-3	6.027368325E-4	-2.433997093E-3
18.63	-6.194150601E-3	6.719965975E-4	-2.398309869E-3
18.64	-6.529438250E-3	5.491305030E-4	-1.375234931E-3
18.650000000000002	-6.866059399E-3	3.391369370E-4	-8.293961582E-4
18.66	-6.765311421E-3	-6.772438734E-4	-1.580256071E-3
18.67	-8.101659106E-3	-1.456221744E-3	-2.676104155E-3
18.68	-9.537655295E-3	-1.855936607E-3	-1.786991470E-3
18.69	-1.224732794E-2	-9.841051642E-4	-4.089894151E-4
18.7	-1.615676620E-2	-4.185522203E-4	-6.128700375E-4
18.71	-1.854825848E-2	-1.385022258E-3	-1.905311463E-3
18.72	-2.111976615E-2	-2.372147312E-4	-6.534455365E-3
18.73	-2.685548683E-2	2.984321460E-3	-1.183793184E-2
18.740000000000002	-3.036926723E-2	3.655302867E-3	1.177223340E-2
18.75	-3.221759236E-2	-3.484206304E-3	9.286099825E-3
18.76	-3.236220217E-2	-2.784142300E-3	2.934724245E-3
18.77	-3.780655518E-2	1.438165376E-3	-8.741828610E-3
18.78	-3.896088247E-2	-9.842265537E-4	-5.242743904E-3
18.79	-4.048389821E-2	-3.101051256E-3	1.982888374E-4
18.8	-4.494605254E-2	4.550367179E-4	-1.056663775E-3
18.81	-4.663968778E-2	2.293672606E-3	-1.424749937E-3
18.82	-4.740008688E-2	2.343471989E-3	1.372224245E-3
18.830000000000002	-4.747851715E-2	1.242408720E-3	2.188244504E-3
18.84	-4.684749385E-2	-3.005428007E-4	1.773261361E-3
18.85	-4.572357229E-2	-1.223665841E-3	1.538879420E-3
18.86	-4.410426417E-2	-1.952149784E-3	1.301533889E-3
18.87	-4.371703780E-2	-3.037927851E-3	2.032243166E-3
18.88	-4.364061511E-2	-3.891987011E-3	3.745137605E-3
18.89	-4.245554090E-2	-2.774352605E-3	4.433826096E-3
18.900000000000002	-4.564155282E-2	1.650726432E-3	4.298719446E-3
18.91	-4.795611537E-2	3.044303104E-3	4.110795412E-3
18.92	-4.841769374E-2	2.989442548E-3	6.353366454E-3
18.93	-4.860264940E-2	1.907263310E-3	4.008180055E-3
18.94	-4.859883645E-2	5.062833269E-4	2.550664292E-3
18.95	-4.813345798E-2	-2.553814566E-3	4.117725111E-3
18.96	-4.875233150E-2	-4.726126894E-3	3.672200594E-3
18.97	-5.029343104E-2	-5.908671126E-3	1.556302461E-3
18.98	-5.250321806E-2	-4.681874993E-3	1.231620861E-3
18.990000000000002	-5.557996027E-2	-2.459427630E-3	1.703090004E-3
19.0	-5.869256934E-2	-7.562590761E-4	1.353924294E-3
19.01	-6.066331761E-2	1.357846799E-3	2.076252780E-4
19.02	-6.093230283E-2	3.551873461E-3	-3.749643233E-4
19.03	-5.877541697E-2	2.180283412E-3	7.777227495E-4
19.04	-5.617040571E-2	5.827200383E-4	1.786014112E-3
19.05	-5.203008923E-2	-2.173566605E-4	9.312000669E-4
19.06	-4.865905380E-2	-9.880553176E-5	3.892721269E-4
19.07	-4.409434761E-2	-1.016287319E-3	1.278332065E-3
19.080000000000002	-3.968662357E-2	-2.132344585E-3	1.776857215E-3
19.09	-3.701336559E-2	-1.798295708E-3	9.696267677E-4
19.1	-3.405938685E-2	-5.927465731E-4	2.461205198E-3
19.11	-3.035126275E-2	7.700030954E-4	3.805714998E-3
19.12	-2.678466892E-2	7.119673939E-4	2.520467195E-3
19.13	-2.372498526E-2	-7.373655167E-4	1.966705960E-3
19.14	-2.202202138E-2	-1.744372431E-3	2.312831215E-3
19.150000000000002	-2.069104098E-2	-2.663154401E-3	2.210488663E-3
19.16	-1.968807332E-2	-3.820453155E-3	1.579501844E-3
19.17	-2.061911917E-2	-4.149219498E-3	8.148206804E-4
19.18	-2.275283253E-2	-3.145762488E-3	1.440049562E-3
19.19	-2.574666149E-2	-4.935116655E-4	1.778048550E-4
19.2	-2.741578116E-2	2.926846767E-4	-6.943277667E-4
19.21	-3.087875581E-2	2.579827204E-3	-2.964514342E-3
19.22	-3.273263392E-2	1.520467230E-3	-2.231527326E-3
19.23	-3.197375308E-2	2.307594173E-3	-3.306233919E-3
19.240000000000002	-3.239686763E-2	1.072246626E-3	-2.853067961E-3
19.25	-3.114556408E-2	-6.845227926E-4	-2.184637633E-3
19.26	-3.046572108E-2	-2.259935289E-3	-2.745050334E-3
19.27	-2.819062366E-2	-1.792982686E-3	-2.933581162E-3
19.28	-2.626808818E-2	-7.965287284E-4	-2.339221881E-3
19.29	-2.354678000E-2	-4.268760217E-4	-1.826953547E-3
19.3	-2.016867908E-2	1.039869832E-4	-1.740808909E-3
19.31	-1.674844760E-2	1.221695564E-3	-1.560577253E-3
19.32	-1.230070567E-2	1.657006487E-3	-1.291273680E-3
19.330000000000002	-6.434764567E-3	1.039194444E-3	-2.102616231E-3
19.34	1.127118012E-3	-4.367887919E-4	-2.773251903E-3
19.35	7.884329944E-3	-5.565766542E-4	-2.154368010E-3
19.36	1.458713674E-2	-1.048824593E-3	-3.440493193E-3
19.37	1.838097091E-2	-1.270155036E-3	-1.775778144E-3
19.38	2.211088750E-2	-4.011505754E-5	-2.645332598E-3
19.39	2.397987747E-2	4.708227963E-4	-1.740072813E-3
19.400000000000002	2.623502338E-2	1.954270646E-3	-1.499270048E-3
19.41	2.808081133E-2	2.990577667E-3	-2.897766558E-3
19.42	2.853017084E-2	1.654435504E-3	-1.982415511E-3
19.43	2.894089020E-2	8.037553458E-4	-2.568665326E-3
19.44	2.874876479E-2	-3.776543460E-5	-3.248864887E-3
19.45	2.770257377E-2	-1.599490449E-3	-3.437632170E-3
19.46	2.594082498E-2	-2.772458002E-3	-4.335573759E-3
19.47	2.343784634E-2	-2.595289527E-3	-4.218572520E-3
19.48	2.110128141E-2	-1.783356002E-3	-3.115169787E-3
19.490000000000002	1.937490062E-2	-6.682118123E-4	-2.256945690E-3
19.5	1.646212390E-2	-7.602244056E-5	6.828648708E-6
19.51	1.575646514E-2	-5.163539498E-4	-1.343172636E-3
19.52	1.526367454E-2	9.875588052E-4	1.166238834E-3
19.53	1.610486966E-2	1.864067047E-3	1.587789776E-3
19.54	1.734219307E-2	3.009251401E-3	3.476430330E-3
19.55	2.054601663E-2	1.753540382E-3	2.707673464E-3
19.56	2.384931718E-2	8.204616815E-4	2.343307238E-3
19.57	2.709112056E-2	1.046198118E-3	2.290807362E-3
19.580000000000002	3.052499965E-2	1.098863351E-3	1.451414534E-3
19.59	3.447018811E-2	7.914900295E-4	3.212558405E-6
19.6	3.930227194E-2	3.836706665E-4	-7.835545859E-4
19.61	4.473626578E-2	-2.681232541E-4	-5.751787092E-4
19.62	4.906517351E-2	-1.112031743E-3	-1.149328795E-3
19.63	5.534197526E-2	-7.556155566E-4	-8.149344507E-4
19.64	5.743730836E-2	-2.637628341E-3	-6.226676119E-4
19.650000000000002	6.090223910E-2	-2.361906134E-3	2.461205927E-4
19.66	6.299502218E-2	-4.675124138E-4	2.542318437E-4
19.67	6.322581136E-2	-1.549573663E-3	-3.312535440E-4
19.68	6.259159015E-2	4.358328543E-4	-2.613285072E-4
19.69	5.978334629E-2	1.955419675E-3	3.158392046E-4
19.7	5.538318479E-2	3.016338691E-3	4.102911089E-4
19.71	5.307947979E-2	4.172131863E-3	-3.994706920E-4
19.72	4.997294108E-2	3.317685376E-3	-1.625469215E-4
19.73	4.743773730E-2	1.701495608E-3	1.439686125E-3
19.740000000000002	4.474754654E-2	2.062554124E-4	2.344808322E-3
19.75	4.229176087E-2	-1.273408247E-3	2.252222098E-3
19.76	4.083346906E-2	-2.749143199E-3	2.926671761E-3
19.77	3.871302748E-2	-3.343044028E-3	3.906136904E-3
19.78	3.663581991E-2	-2.690481350E-3	3.271924410E-3
19.79	3.460255660E-2	-2.089871261E-3	2.828844026E-3
19.8	3.451899301E-2	-9.476627667E-4	2.523911465E-3
19.81	3.654483819E-2	1.078184292E-3	2.611047182E-3
19.82	3.676223421E-2	1.417202845E-3	1.405412111E-3
19.830000000000002	3.566377425E-2	2.775194094E-3	2.589017305E-3
19.84	4.006534587E-2	2.656669393E-3	1.602186687E-4
19.85	4.123377507E-2	2.506027313E-3	-4.244582377E-5
19.86	4.260783436E-2	2.751630814E-3	-1.252115577E-3
19.87	4.582537044E-2	9.457522373E-4	-1.348166878E-3
19.88	4.774168848E-2	-2.006032560E-4	-1.355248979E-3
19.89	4.851847883E-2	-8.290221290E-4	-1.132890461E-3
19.900000000000002	4.839805210E-2	-1.589723334E-3	-1.372164335E-3
19.91	4.673963043E-2	-1.635880573E-3	-1.845607787E-3
19.92	4.458995378E-2	-6.738785068E-4	-1.484982851E-3
19.93	4.187816405E-2	9.828497480E-5	-1.583174315E-3
19.94	3.908518903E-2	-6.681999834E-4	-5.089819379E-4
19.95	3.705941654E-2	-8.547681044E-4	-1.396969906E-3
19.96	3.257142269E-2	-1.160431950E-4	-6.574808027E-4
19.97	2.862290406E-2	5.629520566E-4	-1.903456297E-3
19.98	2.369946802E-2	2.957593353E-4	-7.484613325E-4
19.990000000000002	2.138590122E-2	2.210364506E-4	-5.801437026E-4
20.0	1.664157410E-2	5.657345818E-4	-9.451451158E-4
20.01	1.387126522E-2	2.112786815E-3	-9.604949222E-4
20.02	1.056672363E-2	3.657187880E-3	-1.457349537E-3
20.03	8.151714890E-3	2.823078528E-3	-2.179621306E-3
20.04	8.035835116E-3	6.638916285E-4	-1.972197142E-3
20.05	7.243286570E-3	-5.142257880E-4	-2.313557446E-3
20.06	6.632157041E-3	-1.242498028E-3	-2.758888105E-3
20.07	6.812860553E-3	-1.990050014E-3	-2.473233278E-3
20.080000000000002	6.243309505E-3	-2.372788583E-3	-2.364473759E-3
20.09	4.975120778E-3	-2.197273036E-3	-2.946956138E-3
20.1	4.810830670E-3	-1.410323117E-3	-2.226315208E-3
20.11	3.660000502E-3	1.130856916E-3	-1.108568754E-3
20.12	2.897686152E-3	1.658538327E-3	-2.232950773E-3
20.13	1.714951186E-3	1.286958501E-3	-2.492350188E-3
20.14	6.697782210E-4	2.290513075E-3	-2.047867314E-3
20.150000000000002	1.667328945E-3	1.293238893E-3	-1.214837185E-3
20.16	3.548554016E-4	-6.955471095E-4	-2.093812045E-3
20.17	-1.624441214E-3	-1.332711760E-3	-1.932262281E-3
20.18	-3.692688826E-3	-1.066829368E-3	-1.115454283E-3
20.19	-5.931746182E-3	-5.837749987E-4	3.243459795E-4
20.2	-9.589121587E-3	4.747124799E-5	4.380931877E-4
20.21	-1.368535068E-2	-1.242297518E-4	5.058121861E-5
20.22	-1.765319480E-2	4.353437920E-4	-1.100878136E-3
20.23	-2.170832517E-2	1.800803542E-3	-3.216952388E-3
20.240000000000002	-2.501160895E-2	2.135711205E-4	-3.405825867E-3
20.25	-2.769174392E-2	-1.950959636E-3	-2.479987557E-3
20.26	-3.098697102E-2	2.402137668E-4	-1.724356261E-3
20.27	-3.641223347E-2	-3.918554931E-4	-1.277315005E-2
20.28	-3.791675007E-2	-2.356058761E-3	-1.980916842E-2
20.29	-4.161883430E-2	-2.119593154E-3	-4.304637506E-3
20.3	-3.796111497E-2	-1.577484759E-3	-1.683525949E-3
20.31	-4.120094485E-2	2.440751080E-3	-6.353987068E-3
20.32	-3.967913441E-2	1.565553034E-3	-4.416315842E-3
20.330000000000002	-3.952795124E-2	-2.844036668E-4	-1.895509627E-4
20.34	-4.098688042E-2	3.268591583E-3	2.023793611E-3
20.35	-3.810746750E-2	4.107576800E-3	2.274742765E-3
20.36	-3.582173694E-2	4.925577477E-4	2.531060007E-3
20.37	-3.520872471E-2	-1.965620504E-3	1.801068037E-3
20.38	-3.397650742E-2	-1.951201835E-3	2.886635020E-4
20.39	-3.322703865E-2	-1.617477929E-3	7.806702258E-4
20.400000000000002	-3.271074589E-2	-2.108476396E-3	1.828232699E-3
20.41	-3.352099395E-2	-3.420041904E-3	1.610261354E-3
20.42	-3.560682273E-2	-4.668857559E-3	1.169759187E-3
20.43	-3.599563873E-2	-6.264869421E-4	4.334908876E-3
20.44	-3.975542319E-2	2.411606690E-3	3.987724330E-3
20.45	-4.300230520E-2	3.670309305E-4	-2.899949533E-4
20.46	-4.660978287E-2	2.010078183E-4	1.592072077E-3
20.47	-4.882546881E-2	1.263500489E-3	1.995429329E-3
20.48	-5.037847316E-2	-4.039226024E-4	8.556570146E-4
20.490000000000002	-5.323044455E-2	-2.867077395E-3	4.074300859E-4
20.5	-5.595093979E-2	-3.478885872E-3	4.688580147E-4
20.51	-5.818770514E-2	-2.193998312E-3	2.715826931E-4
20.52	-6.059153064E-2	-1.867811964E-4	-1.834740557E-4
20.53	-6.148185346E-2	7.344781310E-4	8.641427621E-5
20.54	-6.064368530E-2	5.935151477E-4	1.318356952E-3
20.55	-6.150392455E-2	1.903855908E-3	-7.476069873E-5
20.56	-5.882483757E-2	2.440964028E-3	-1.262777891E-3
20.57	-5.251084304E-2	5.868937523E-4	1.039582643E-3
20.580000000000002	-4.687393642E-2	-9.204957931E-4	1.323968324E-3
20.59	-4.126878332E-2	-4.428374154E-4	8.490620624E-4
20.6	-3.713316458E-2	-1.226085764E-3	7.197263008E-4
20.61	-3.285700332E-2	-9.758040836E-4	3.102878782E-4
20.62	-2.886474110E-2	-1.254907402E-3	4.749127779E-3
20.63	-2.467968589E-2	-6.145592024E-5	6.523553285E-3
20.64	-2.186851001E-2	8.839664311E-4	5.834428224E-3
20.650000000000002	-2.072889885E-2	1.132310773E-3	5.971265654E-3
20.66	-1.902281775E-2	-1.732119391E-4	5.651953185E-3
20.67	-1.823288750E-2	-1.675301309E-3	5.764108754E-3
20.68	-1.946256922E-2	-1.504989902E-3	5.845418437E-3
20.69	-2.045377096E-2	-1.670593356E-3	3.883948502E-3
20.7	-2.255000626E-2	-2.464931743E-3	2.482893431E-3
20.71	-2.656057066E-2	-1.375393972E-3	-6.623445418E-4
20.72	-2.886666691E-2	-2.347957640E-4	-3.813952055E-3
20.73	-3.158360756E-2	-1.103413507E-3	-1.049219038E-4
20.740000000000002	-3.462832172E-2	6.530448635E-4	-1.983354189E-3
20.75	-3.649807116E-2	8.486128301E-4	-1.849175163E-3
20.76	-3.798440271E-2	1.598843337E-3	-1.155125722E-3
20.77	-3.720164533E-2	7.605669194E-4	-1.889959296E-3
20.78	-3.671275175E-2	-6.092489808E-4	-3.307550993E-3
20.79	-3.429977870E-2	-6.783936470E-4	-3.771875944E-3
20.8	-3.129882087E-2	-6.775282758E-4	-3.070700679E-3
20.81	-2.745292831E-2	-7.180115132E-4	-2.299523264E-3
20.82	-2.227214765E-2	-2.100383309E-4	-1.369289184E-3
20.830000000000002	-1.763339107E-2	3.003195163E-4	-9.444731937E-4
20.84	-1.380514123E-2	4.172448096E-5	-2.058814379E-3
20.85	-8.482584275E-3	-4.916566084E-4	-2.879918410E-3
20.86	-1.097757169E-3	1.406144054E-4	-2.280729857E-3
20.87	5.530351041E-3	-1.000941202E-3	-1.184195128E-3
20.88	1.061180496E-2	-1.393589780E-3	-1.152628508E-3
20.89	1.528339479E-2	-1.988533909E-3	-1.128044903E-3
20.900000000000002	2.087030707E-2	-1.019600452E-3	-2.371724441E-3
20.91	2.296249971E-2	8.870062395E-4	-2.281520040E-3
20.92	2.405265812E-2	1.295493766E-3	-1.402507761E-3
20.93	2.475215220E-2	2.231614634E-3	-1.692370024E-3
20.94	2.483566010E-2	3.918473169E-3	-1.919115629E-3
20.95	2.440786834E-2	3.146383895E-3	-2.110322385E-3
20.96	2.312438647E-2	1.285940305E-3	-2.467200290E-3
20.97	2.179572966E-2	-1.015009127E-4	-2.669913749E-3
20.98	2.049121907E-2	-1.084077462E-3	-2.914422347E-3
20.990000000000002	1.844659054E-2	-1.262579664E-3	-3.027170744E-3
21.0	1.721712017E-2	-6.274447887E-4	-2.437952605E-3
21.01	1.515742986E-2	-1.259656230E-3	-1.982588895E-3
21.02	1.298009780E-2	-4.887321771E-4	-1.037203800E-3
21.03	1.148329341E-2	7.209691853E-4	-1.146906462E-3
21.04	1.236244404E-2	9.393211157E-4	-6.259141829E-4
21.05	1.283649617E-2	-1.028713986E-3	1.755887422E-3
21.06	1.529869401E-2	5.064490886E-4	1.772195253E-3
21.07	1.725331956E-2	1.844328985E-3	2.098733339E-3
21.080000000000002	2.184156740E-2	2.267623291E-3	2.250939760E-3
21.09	2.685650500E-2	2.706501856E-3	-1.057674335E-3
21.1	2.919526591E-2	2.137792743E-3	-4.021741573E-4
21.11	3.442941824E-2	1.615915919E-3	-4.623037010E-4
21.12	3.902073567E-2	1.384339675E-3	-2.959930628E-4
21.13	4.369622254E-2	3.210419864E-4	-3.619180586E-4
21.14	4.810404742E-2	-4.705769866E-4	-1.401697066E-4
21.150000000000002	5.156212546E-2	-8.471086780E-4	1.138721771E-4
21.16	5.468562115E-2	-1.243082311E-3	-7.491429049E-5
21.17	5.715137405E-2	-1.620808094E-3	-9.977918296E-4
21.18	5.810474052E-2	-2.006979046E-3	-2.296368108E-3
21.19	5.773910340E-2	-1.697403961E-3	-2.195945727E-3
21.2	5.535447668E-2	4.530151700E-4	-3.917772675E-4
21.21	5.389705860E-2	3.963153512E-4	-2.067202177E-3
21.22	5.165321195E-2	1.154798612E-3	-1.959024336E-4
21.23	4.766734803E-2	2.359560475E-3	-8.219328138E-6
21.240000000000002	4.466992316E-2	1.763670765E-3	1.427613885E-3
21.25	4.283022933E-2	1.673398031E-3	1.714724831E-3
21.26	4.026477698E-2	1.843524856E-3	2.301977819E-3
21.27	3.786518676E-2	1.461941613E-3	3.393596187E-3
21.28	3.651227856E-2	1.793046744E-4	3.923856172E-3
21.29	3.532283985E-2	-3.114105313E-4	3.404027376E-3
21.3	3.489053412E-2	-1.004629460E-3	3.589619462E-3
21.31	3.584874560E-2	-1.107495045E-3	3.547378680E-3
21.32	3.700560086E-2	-2.797004960E-4	2.774085459E-3
21.330000000000002	3.817836777E-2	-2.594678294E-4	1.856936028E-3
21.34	3.967782532E-2	-4.805234800E-4	1.136682477E-3
21.35	4.086129689E-2	8.900957258E-4	9.041036699E-4
21.36	4.310265762E-2	1.379179791E-3	2.184443320E-4
21.37	4.498185730E-2	2.037881109E-3	-1.377951633E-3
21.38	4.671253526E-2	1.062861428E-3	-2.150712874E-4
21.39	4.893147910E-2	1.016892836E-3	-5.991159346E-4
21.400000000000002	5.018891656E-2	1.568954141E-4	-2.092538740E-4
21.41	5.036800468E-2	-1.053612336E-3	-2.628503706E-4
21.42	5.046951735E-2	-1.773346512E-4	1.575292681E-4
21.43	4.845263922E-2	3.264050634E-4	-1.085585203E-3
21.44	4.475812258E-2	3.509967624E-4	-1.444072556E-3
21.45	4.136392852E-2	5.957957295E-4	-1.788536534E-3
21.46	3.719677249E-2	5.915881792E-4	-1.089405788E-3
21.47	3.265503371E-2	2.489741987E-4	-8.822467811E-4
21.48	2.789640927E-2	-4.056457727E-4	-1.150148955E-3
21.490000000000002	2.358129227E-2	-9.325618594E-4	-1.558474150E-3
21.5	2.124975818E-2	-1.025025176E-3	-1.111069500E-3
21.51	1.888252889E-2	-8.873289900E-4	-5.442079799E-4
21.52	1.585220595E-2	-7.647152198E-4	-5.761732373E-4
21.53	1.307515138E-2	-4.519977718E-4	-1.048639860E-3
21.54	1.060548448E-2	1.228156731E-3	-9.888063338E-4
21.55	8.860206245E-3	2.876708105E-3	-2.730356123E-4
21.56	8.082144431E-3	1.757712205E-3	-1.042313114E-3
21.57	6.922566218E-3	1.481972664E-3	-1.344362219E-3
21.580000000000002	9.628265737E-3	1.929562137E-3	-1.278990355E-3
21.59	1.049750897E-2	4.909127884E-4	-1.525956681E-3
21.6	1.160977740E-2	-1.155681636E-3	-1.622148474E-3
21.61	1.238064045E-2	-2.162032530E-3	-2.600248900E-3
21.62	1.295582378E-2	-1.162354200E-4	-3.531130400E-3
21.63	1.233290998E-2	6.289373326E-4	-2.420577365E-3
21.64	1.251622787E-2	1.176432196E-3	-2.519807977E-3
21.650000000000002	1.172920479E-2	1.151180555E-3	-2.207604229E-3
21.66	1.039806030E-2	7.713431490E-4	-1.988981810E-3
21.67	9.024117349E-3	5.654811523E-4	-1.838510024E-3
21.68	6.864416688E-3	5.708559616E-6	-1.215944385E-3
21.69	4.209134816E-3	-1.400867209E-3	-9.520326521E-4
21.7	1.900166585E-3	-2.164713547E-3	-9.497819807E-4
21.71	-2.895926827E-3	-2.008231000E-3	-6.834219215E-4
21.72	-7.297782057E-3	-6.006803661E-4	-1.530880838E-3
21.73	-1.223175338E-2	2.622399182E-4	1.957716081E-4
21.740000000000002	-1.671657151E-2	1.903704897E-3	7.981123064E-4
21.75	-2.091791666E-2	1.417202845E-3	-1.545256224E-3
21.76	-2.421808428E-2	1.060946629E-3	-1.248377409E-3
21.77	-2.873067594E-2	8.540864737E-4	-6.019769575E-4
21.78	-3.332850075E-2	6.855349691E-4	-1.386374083E-3
21.79	-3.707315005E-2	-4.315230373E-4	-1.031560142E-3
21.8	-3.860920236E-2	-2.041446608E-3	-3.053936869E-3
21.81	-4.035230841E-2	-7.045092933E-4	-4.282452216E-3
21.82	-3.987211116E-2	-1.098039207E-3	-7.386875816E-3
21.830000000000002	-4.074152267E-2	-1.301843330E-3	-1.031402453E-2
21.84	-3.940460062E-2	-1.813627586E-3	-8.974379149E-3
21.85	-3.646164164E-2	-8.922962286E-4	7.735710873E-4
21.86	-3.527541429E-2	2.409801884E-4	7.120005296E-3
21.87	-3.343304392E-2	-4.788397683E-4	4.963559417E-3
21.88	-3.110220901E-2	-2.148781713E-4	9.299068495E-4
21.89	-3.087683714E-2	3.448060945E-3	1.534062776E-3
21.900000000000002	-2.757839388E-2	2.715818480E-3	-1.524530318E-4
21.91	-2.730805860E-2	-5.694758352E-4	6.103626524E-5
21.92	-2.779169566E-2	-5.209918578E-4	3.346064055E-3
21.93	-2.791185862E-2	-4.517550756E-5	3.409749422E-3
21.94	-2.959926906E-2	-1.702316351E-3	6.276706345E-3
21.95	-3.014438301E-2	-2.579944411E-3	5.674609475E-3
21.96	-3.247517236E-2	-4.733743599E-3	5.362302217E-3
21.97	-3.506473543E-2	-3.680903200E-3	4.702731021E-3
21.98	-3.889664745E-2	-1.386119231E-3	2.965623293E-3
21.990000000000002	-4.281834877E-2	-7.189993112E-4	2.283307466E-3
22.0	-4.699694550E-2	-2.470683879E-4	2.191349244E-3
22.01	-5.075376336E-2	1.258752501E-3	1.035131548E-4
22.02	-5.412252614E-2	2.309785041E-3	-2.115653542E-3
22.03	-5.628600075E-2	1.271554833E-3	-1.225597643E-3
22.04	-5.636052644E-2	-5.699836760E-4	1.369916353E-3
22.05	-5.795008814E-2	3.624137194E-4	3.917516802E-4
22.06	-5.798075978E-2	-8.648551516E-4	-7.826664513E-4
22.07	-5.662539041E-2	-1.692838977E-3	2.328473482E-3
22.080000000000002	-5.508987939E-2	-1.296863362E-3	7.598699663E-4
22.09	-5.070657468E-2	-1.021051809E-3	-2.466379072E-4
22.1	-4.830183721E-2	1.098294899E-3	-6.440339949E-4
22.11	-4.427766538E-2	-2.903413325E-4	1.598817262E-3
22.12	-4.004758632E-2	-4.225019663E-4	1.733762178E-3
22.13	-3.598319328E-2	-1.375393972E-3	3.649217043E-3
22.14	-3.078381389E-2	-1.366881545E-3	2.360885458E-3
22.150000000000002	-2.757707411E-2	-1.656659224E-3	1.763471643E-3
22.16	-2.542966796E-2	-1.556466591E-3	3.249154199E-3
22.17	-2.376635078E-2	-1.209412557E-3	3.170124194E-3
22.18	-2.331211811E-2	2.348505409E-4	2.952157411E-3
22.19	-2.397559947E-2	1.240989611E-3	2.278596315E-3
22.2	-2.495010658E-2	1.343213089E-3	1.449168102E-3
22.21	-2.496036732E-2	5.479818011E-4	1.158700581E-3
22.22	-2.569096224E-2	-9.823790789E-5	1.007366112E-3
22.23	-2.803925823E-2	-2.988903848E-5	3.966086492E-4
22.240000000000002	-2.966753756E-2	-6.692863342E-4	-2.179562857E-4
22.25	-3.152518845E-2	-1.499509022E-3	-2.921923658E-5
22.26	-3.352766341E-2	-2.052107083E-3	-4.452953316E-4
22.27	-3.556428227E-2	-2.276570870E-3	-1.232054520E-3
22.28	-3.673688507E-2	-1.510425314E-3	-4.812417891E-4
22.29	-3.737723322E-2	-6.591547210E-4	-1.376989221E-3
22.3	-3.548426128E-2	8.471008250E-4	-2.257057652E-3
22.31	-3.466869890E-2	6.959987484E-4	-2.007744704E-3
22.32	-3.172499112E-2	1.194618232E-3	-2.337483517E-3
