Time (s)	Acceleration x (m/s^2)	Acceleration y (m/s^2)	Acceleration z (m/s^2)
0.0	-2.293855024E-3	2.360075861E-3	4.798942536E-4
0.01	-2.293855024E-3	2.360075861E-3	4.798942536E-4
0.02	-1.526449772E-4	1.447112752E-4	1.379017138E-3
0.03	8.342375535E-4	1.634471230E-3	5.283644230E-4
0.04	7.192751010E-4	2.843270652E-3	-4.386191425E-4
0.05	5.368843378E-4	2.901865605E-3	-5.007023930E-4
0.06	-2.550925771E-4	3.455413122E-3	-4.906932740E-4
0.07	-8.686050579E-4	3.170050811E-3	-4.806932910E-4
0.08	-6.403050663E-4	1.606425816E-3	-4.706933080E-4
0.09	2.012233987E-4	-2.049749485E-4	1.346920990E-3
0.1	-4.203006338E-4	-8.665124841E-4	-3.625685019E-4
0.11	-1.066255088E-3	-2.104724065E-3	1.364744055E-3
0.12	-1.249550870E-4	-2.499949045E-3	-1.296793297E-3
0.13	1.235069898E-3	-2.444624172E-3	-5.570932597E-4
0.14	3.149260671E-4	-2.384300833E-3	-5.001057580E-4
0.15	1.818277719E-4	-2.470452678E-3	3.780211998E-4
0.16	1.309886608E-4	-1.766455397E-3	-4.151682580E-4
0.17	8.098866105E-5	-1.914292097E-5	-1.395168252E-3
0.18	5.808241221E-5	7.471070469E-4	-6.050432422E-4
0.19	4.711366256E-5	9.365133312E-4	-2.280230762E-3
0.2	-6.041050762E-4	2.006731972E-3	-6.909495086E-4
0.21	-6.738550750E-4	3.005138221E-3	-1.385168269E-3
0.22	-6.738550750E-4	3.091044656E-3	-2.365168280E-3
0.23	2.021761587E-4	3.090075925E-3	-1.575043271E-3
0.24	2.961449070E-4	3.090075925E-3	-1.480105770E-3
0.25	1.172176141E-3	2.205013247E-3	-1.480105770E-3
0.26	1.266144889E-3	3.489820672E-4	-1.480105770E-3
0.27	2.133144930E-3	-2.477049025E-3	-2.365168280E-3
0.28	4.469886580E-4	-2.741861540E-3	-2.460105781E-3
0.29	-6.198863077E-4	-3.624986722E-3	-1.575043271E-3
0.3	1.531449034E-4	-3.701861435E-3	-1.480105770E-3
0.31	-6.208550583E-4	-4.566924112E-3	-1.480105770E-3
0.32	-1.589886372E-3	-3.756798986E-3	-1.480105770E-3
0.33	-7.987925763E-4	-4.526924180E-3	-1.480105770E-3
0.34	-1.579886220E-3	-5.468861606E-3	-1.480105770E-3
0.35000000000000003	8.723867958E-5	-3.762705202E-3	-2.365168280E-3
0.36	1.152176172E-3	-3.551861468E-3	-1.575043271E-3
0.37	2.113144796E-3	-2.646799159E-3	-1.480105770E-3
0.38	1.312051121E-3	-7.707678819E-4	-2.374199515E-3
0.39	3.310824019E-4	2.961070649E-4	-6.909495086E-4
0.4	1.112176148E-3	3.991070854E-4	-5.001057580E-4
0.41000000000000003	-1.430980080E-3	4.091070729E-4	-5.001057580E-4
0.42	4.723865589E-5	-1.341986646E-3	-2.279262014E-3
0.43	2.361449041E-4	-2.378861631E-3	-2.470105764E-3
0.44	-1.506886360E-3	-3.318861701E-3	-2.470105764E-3
0.45	-8.087925593E-4	-3.391861740E-3	-6.909495086E-4
0.46	1.531449034E-4	-4.238861646E-3	-1.385168269E-3
0.47000000000000003	-6.208550583E-4	-4.311861667E-3	-5.950432591E-4
0.48	1.914238564E-3	-5.149830171E-3	-1.394199503E-3
0.49	2.178082330E-3	-3.442705337E-3	-1.490105753E-3
0.5	2.158082364E-3	-3.222830236E-3	-1.490105753E-3
0.51	1.262051122E-3	-2.316799161E-3	-1.490105753E-3
0.52	1.148082403E-3	-1.325830352E-3	-1.490105753E-3
0.53	2.610824066E-4	-3.448616463E-4	-6.050432422E-4
0.54	-7.098862956E-4	1.502138379E-3	-5.101057410E-4
0.55	-7.948238058E-4	2.557075755E-3	-5.101057410E-4
0.56	-7.938550575E-4	2.632013272E-3	-5.101057410E-4
0.5700000000000001	8.217616581E-5	1.735982030E-3	-5.101057410E-4
0.58	1.043144923E-3	1.622013311E-3	-1.395168252E-3
0.59	2.510824131E-4	-1.008017845E-3	-6.050432422E-4
0.6	1.023144869E-3	-3.032955234E-3	-5.101057410E-4
0.61	1.107113630E-3	-3.201861504E-3	3.749566012E-4
0.62	1.973144839E-3	-3.172830471E-3	4.698940843E-4
0.63	2.039051130E-3	-3.133799137E-3	-1.300230768E-3
0.64	1.142051140E-3	-1.341736635E-3	-6.050432422E-4
0.65	2.448286018E-4	-1.918864077E-3	-1.303327953E-3
0.66	-7.986774611E-4	-3.546617559E-4	-6.174745415E-4
0.67	-8.857925876E-4	2.479138251E-3	-1.395168252E-3
0.68	-8.838550908E-4	3.609013313E-3	-6.050432422E-4
0.6900000000000001	-8.657925374E-4	5.397950628E-3	-1.395168252E-3
0.7000000000000001	1.217616530E-5	6.383857006E-3	-1.490105753E-3
0.71	9.641136268E-4	6.388794491E-3	-1.490105753E-3
0.72	1.047113639E-3	6.325887994E-3	-6.050432422E-4
0.73	1.520511602E-4	4.459638100E-3	-2.280230762E-3
0.74	9.412074077E-4	2.462857057E-3	-6.999807433E-4
0.75	-7.249487950E-4	1.366950848E-3	-1.395168252E-3
0.76	8.382074277E-4	-4.819866592E-4	-6.050432422E-4
0.77	-1.601948735E-3	2.061070736E-4	3.839880041E-4
0.78	-9.897613143E-4	-1.442955327E-3	-1.299262002E-3
0.79	-1.751823796E-3	-3.345861511E-3	-1.490105753E-3
0.8	-9.407300635E-4	-1.732705364E-3	-1.490105753E-3
0.81	3.217616287E-5	-6.458303807E-4	-1.490105753E-3
0.8200000000000001	1.002176150E-3	3.170758258E-4	-5.960120075E-4
0.8300000000000001	2.110824090E-4	2.144075735E-3	-1.394199503E-3
0.84	1.161449101E-4	3.169982063E-3	-1.490105753E-3
0.85	9.831449302E-4	3.223950884E-3	-5.960120075E-4
0.86	1.910824114E-4	5.830106912E-3	3.849567525E-4
0.87	-7.708550374E-4	4.294794612E-3	-4.051682569E-4
0.88	-8.457925624E-4	4.054919544E-3	-5.001057580E-4
0.89	3.217616287E-5	4.004919443E-3	-5.001057580E-4
0.9	-1.625917594E-3	3.069856999E-3	-5.001057580E-4
0.91	-5.276133948E-5	1.190919585E-3	-5.001057580E-4
0.92	1.361449110E-4	-1.609955431E-3	-1.385168269E-3
0.93	1.361449110E-4	-3.605861460E-3	-5.950432591E-4
0.9400000000000001	1.012176134E-3	-3.744767931E-3	-5.001057580E-4
0.9500000000000001	1.088082412E-3	-2.818736590E-3	-5.001057580E-4
0.96	1.077113681E-3	-3.559830414E-3	-5.001057580E-4
0.97	1.934113655E-3	-3.604767832E-3	-5.001057580E-4
0.98	-6.109800762E-4	-3.572830200E-3	3.849567525E-4
0.99	8.582073937E-4	-2.639705253E-3	-1.299262002E-3
1.0	1.037113656E-3	-7.607678809E-4	1.174112845E-3
1.01	1.510824118E-4	-5.608929092E-4	-3.192620085E-4
1.02	-8.018238252E-4	3.070758383E-4	-1.395168252E-3
1.03	-8.757926045E-4	1.267075795E-3	-1.490105753E-3
1.04	-8.648237891E-4	4.659820876E-4	-5.960120075E-4
1.05	1.217616530E-5	-4.969241565E-4	3.849567525E-4
1.06	9.731448614E-4	-1.447892879E-3	-4.141994916E-4
1.07	1.915082428E-3	-3.246830420E-3	-1.395168252E-3
1.08	1.093988637E-3	-3.366705364E-3	-1.490105753E-3
1.09	1.201136601E-4	-3.323799169E-3	2.800191001E-4
1.1	8.931449004E-4	-4.159830176E-3	4.698940843E-4
1.11	9.771136644E-4	-5.071767767E-3	-4.151682580E-4
1.12	9.108241603E-5	-4.229705346E-3	3.749566012E-4
1.1300000000000001	-8.708550516E-4	-4.057674226E-3	-1.300230768E-3
1.1400000000000001	-9.457925788E-4	-3.119705387E-3	-6.050432422E-4
1.1500000000000001	-9.276463970E-4	-2.209492288E-3	2.841173367E-4
1.16	-5.995952637E-5	-1.984299484E-3	-4.029074539E-4
1.17	9.131448697E-4	-1.085830369E-3	-5.101057410E-4
1.18	9.880823957E-4	7.711695734E-4	3.749566012E-4
1.19	1.101136626E-4	1.818044625E-3	-4.151682580E-4
1.2	1.614491407E-5	1.882982009E-3	-5.101057410E-4
1.21	-8.598863171E-4	1.189820827E-4	-5.101057410E-4
1.22	7.982074025E-4	-1.812955430E-3	-5.101057410E-4
1.23	-7.659175685E-4	-2.848861586E-3	3.749566012E-4
1.24	-9.448238304E-4	-3.779830413E-3	4.698940843E-4
1.25	-1.810855123E-3	-2.957767790E-3	4.698940843E-4
1.26	-1.009761298E-3	-3.690799128E-3	-4.151682580E-4
1.27	-3.782383304E-5	-2.867767925E-3	3.749566012E-4
1.28	-8.108550599E-4	-2.733799072E-3	4.698940843E-4
1.29	8.391761760E-4	-2.702830356E-3	4.698940843E-4
1.3	1.008082371E-3	-1.787767897E-3	-4.151682580E-4
1.31	1.301136582E-4	7.116959383E-5	-5.101057410E-4
1.32	9.031448850E-4	2.003107034E-3	3.749566012E-4
1.33	1.201136601E-4	1.286950798E-3	-4.151682580E-4
1.34	-8.498863325E-4	2.933106949E-3	3.749566012E-4
1.35	-9.257925286E-4	3.959982025E-3	4.698940843E-4
1.36	-1.799886215E-3	4.022981912E-3	1.354956763E-3
1.37	-9.997612973E-4	2.231888327E-3	5.648316035E-4
1.3800000000000001	-8.948238222E-4	2.699508358E-4	2.240019105E-3
1.3900000000000001	-1.782383744E-5	-7.869241329E-4	1.544831765E-3
1.4000000000000001	1.819176183E-3	-8.618616601E-4	-3.202307388E-4
1.41	1.112051107E-3	-8.508929288E-4	-5.101057410E-4
1.42	9.980823787E-4	-8.408928616E-4	3.749566012E-4
1.43	1.863144839E-3	-8.308928696E-4	1.354956763E-3
1.44	1.950511559E-4	9.221383463E-4	1.449894282E-3
1.45	6.144913596E-6	1.977075800E-3	1.449894282E-3
1.46	-8.698863018E-4	2.937075836E-3	2.334956624E-3
1.47	-1.821823855E-3	4.755044352E-3	6.597690866E-4
1.48	-1.527613394E-4	4.894919571E-3	1.354956763E-3
1.49	9.121761197E-4	4.835888103E-3	5.648316035E-4
1.5	1.301136582E-4	6.527950384E-3	4.698940843E-4
1.51	9.031448850E-4	5.743732078E-3	-4.151682580E-4
1.52	9.780824127E-4	3.815763112E-3	-5.101057410E-4
1.53	9.671136814E-4	4.459981921E-3	1.260019280E-3
1.54	1.824113655E-3	3.610825594E-3	-3.202307388E-4
1.55	1.640824139E-4	2.597919538E-3	1.260019280E-3
1.56	-2.385508492E-5	-1.889111636E-3	1.449894282E-3
1.57	-8.998863397E-4	-1.447767915E-3	-3.202307388E-4
1.58	-9.848238556E-4	-1.331861616E-3	3.749566012E-4
1.59	-8.976133842E-5	-2.187892832E-3	4.698940843E-4
1.6	6.144913596E-6	-1.367767865E-3	4.698940843E-4
1.61	-8.789175364E-4	-1.251861650E-3	4.698940843E-4
1.62	-9.648237964E-4	-3.648616634E-4	4.698940843E-4
1.6300000000000001	7.882074195E-4	1.473107005E-3	1.354956763E-3
1.6400000000000001	9.671136814E-4	3.385044594E-3	5.648316035E-4
1.6500000000000001	1.882394426E-4	5.101577223E-3	4.698940843E-4
1.6600000000000001	8.522097946E-4	5.397734124E-3	4.698940843E-4
1.67	9.471136222E-4	3.592856850E-3	1.363987829E-3
1.68	-8.149488284E-4	3.363950646E-3	1.459894079E-3
1.69	-9.948238386E-4	2.456950841E-3	1.459894079E-3
1.7	-1.178238354E-4	5.899508405E-4	5.658003338E-4
1.71	-3.288633535E-5	-4.669241609E-4	4.698940843E-4
1.72	-9.098863244E-4	-3.178986459E-3	1.363987829E-3
1.73	7.482073943E-4	-3.405736530E-3	-3.192620085E-4
1.74	9.271136562E-4	-3.363799101E-3	1.260019280E-3
1.75	9.080823544E-4	-4.190799042E-3	5.648316035E-4
1.76	3.011365693E-5	-3.358736417E-3	1.354956763E-3
1.77	8.031448703E-4	-3.205736497E-3	5.648316035E-4
1.78	8.871136310E-4	-3.163799068E-3	4.698940843E-4
1.79	1.011365936E-5	-2.247767860E-3	1.354956763E-3
1.8	-8.385508777E-5	-1.246799134E-3	1.449894282E-3
1.81	-8.385508777E-5	6.021383311E-4	5.648316035E-4
1.82	7.741136662E-4	-9.529554053E-4	1.354956763E-3
1.83	-9.886338203E-6	-2.548616534E-4	1.449894282E-3
1.84	-1.038550887E-4	-1.508929083E-4	5.648316035E-4
1.85	7.631449314E-4	-1.016924116E-3	1.354956763E-3
1.86	-8.959175340E-4	-2.852955344E-3	1.449894282E-3
1.87	1.544238629E-3	-2.994767919E-3	5.648316035E-4
1.8800000000000001	6.505116685E-5	-4.687798985E-3	-4.151682580E-4
1.8900000000000001	7.431448790E-4	-3.948736683E-3	2.145081622E-3
1.9000000000000001	1.703144916E-3	-3.804767865E-3	1.544831765E-3
1.9100000000000001	9.020511328E-4	-2.878736656E-3	1.449894282E-3
1.92	-9.368863120E-4	-2.734767820E-3	-3.202307388E-4
1.93	-2.393453953E-4	-2.693821685E-3	3.744037828E-4
1.94	-1.438550790E-4	-1.786859733E-3	1.354897390E-3
1.95	-1.348238338E-4	-1.671861681E-3	1.449894282E-3
1.96	-1.338550843E-4	1.002008366E-4	2.334956624E-3
1.97	-1.338550843E-4	1.166107031E-3	2.429894108E-3
1.98	-1.248238286E-4	1.251044540E-3	1.544831765E-3
1.99	-1.238550780E-4	1.232013322E-3	1.449894282E-3
2.0	7.341136444E-4	-5.219866423E-4	2.334956624E-3
2.0100000000000002	-4.988633184E-5	-6.918616275E-4	2.429894108E-3
2.02	7.231449096E-4	-2.432955317E-3	1.544831765E-3
2.0300000000000002	-5.988632537E-5	-2.601861591E-3	2.334956624E-3
2.04	-1.538550736E-4	-2.563799156E-3	6.597690866E-4
2.05	-1.896886264E-3	-2.523799056E-3	4.698940843E-4
2.06	-2.056761304E-3	-2.492830340E-3	1.354956763E-3
2.07	-1.150730079E-3	-2.453799157E-3	5.648316035E-4
2.08	-1.687925815E-4	-2.422830291E-3	2.240019105E-3
2.09	-6.482383630E-5	-1.507767898E-3	6.597690866E-4
2.1	7.941136356E-4	3.511695839E-4	1.354956763E-3
2.11	1.914491505E-5	3.159138384E-3	5.648316035E-4
2.12	-6.482383630E-5	3.394919548E-3	4.698940843E-4
2.13	-6.385508682E-5	4.220950722E-3	4.698940843E-4
2.14	-6.385508682E-5	4.246856905E-3	4.698940843E-4
2.15	6.558335935E-4	4.929777280E-3	1.204576464E-3
2.16	5.715497330E-5	5.108179379E-3	1.449894282E-3
2.17	-7.385508147E-5	4.171088081E-3	1.449894282E-3
2.18	-8.288633716E-5	4.015888343E-3	5.648316035E-4
2.19	-9.598863321E-4	2.221888362E-3	1.354956763E-3
2.2	-1.687925815E-4	2.689820874E-4	2.334956624E-3
2.21	-7.385508147E-5	8.007583467E-5	1.544831765E-3
2.22	-7.385508147E-5	8.007583467E-5	5.648316035E-4
2.23	-9.589175815E-4	8.007583467E-5	1.354956763E-3
2.24	7.072386208E-4	-7.869241329E-4	2.334956624E-3
2.25	1.108240772E-5	-3.892906165E-6	1.544831765E-3
2.2600000000000002	7.831449008E-4	1.842138361E-3	1.449894282E-3
2.27	1.136658375E-7	2.012013226E-3	2.334956624E-3
2.2800000000000002	-9.698863162E-4	3.744075625E-3	1.544831765E-3
2.29	-1.054823830E-3	5.627950760E-3	5.648316035E-4
2.3000000000000003	-1.687925815E-4	7.498919179E-3	1.354956763E-3
2.31	-7.385508147E-5	5.846731897E-3	1.449894282E-3
2.32	-9.498863468E-4	4.701794521E-3	5.648316035E-4
2.33	-1.587925879E-4	1.935857015E-3	3.134112850E-3
2.34	-6.385508682E-5	2.508044570E-3	2.525800357E-3
2.35	8.031448703E-4	8.209195707E-4	2.429894108E-3
2.36	2.011366340E-5	-2.459554137E-4	1.544831765E-3
2.37	-6.482383630E-5	-1.197892842E-3	1.449894282E-3
2.38	7.941136356E-4	-2.156924126E-3	1.449894282E-3
2.39	1.011365936E-5	-2.213799024E-3	2.334956624E-3
2.4	-8.385508777E-5	-1.315830351E-3	1.544831765E-3
2.41	-8.385508777E-5	-3.258303970E-4	5.648316035E-4
2.42	-8.385508777E-5	1.513107114E-3	1.354956763E-3
2.43	7.831449008E-4	2.549013269E-3	1.449894282E-3
2.44	8.671136650E-4	3.498044565E-3	2.334956624E-3
2.45	-1.891758337E-5	3.553950882E-3	1.544831765E-3
2.46	-9.808550510E-4	4.389981890E-3	1.449894282E-3
2.47	-1.887925790E-4	1.815857015E-3	2.334956624E-3
2.48	-8.482383725E-5	6.359820782E-4	2.429894108E-3
2.49	7.831449008E-4	-1.202955358E-3	1.544831765E-3
2.5	-8.759175679E-4	-2.256924142E-3	2.334956624E-3
2.5100000000000002	-1.787925855E-4	-3.198861551E-3	1.544831765E-3
2.52	-8.385508777E-5	-3.253799102E-3	1.449894282E-3
2.5300000000000002	7.741136662E-4	-4.938767849E-3	5.648316035E-4
2.54	-8.550825168E-7	-4.189705414E-3	1.354956763E-3
2.5500000000000003	-9.385508242E-5	-3.168736554E-3	1.449894282E-3
2.56	7.641136820E-4	-3.042830337E-3	2.334956624E-3
2.57	8.471136148E-4	-3.003799154E-3	1.544831765E-3
2.58	8.371136228E-4	-2.954767819E-3	5.648316035E-4
2.59	8.271136398E-4	-1.170767887E-3	1.354956763E-3
2.6	8.171136568E-4	-9.618616765E-4	1.449894282E-3
2.61	8.071136317E-4	-8.389291448E-5	1.449894282E-3
2.62	-6.988633392E-5	1.007583717E-5	1.449894282E-3
2.63	-1.638550799E-4	1.007583717E-5	2.334956624E-3
2.64	-1.638550799E-4	-8.569241094E-4	6.597690866E-4
2.65	-9.487633132E-4	-2.503556884E-3	2.055894312E-3
2.66	5.935233450E-4	-2.843212016E-3	2.429894108E-3
2.67	1.673144794E-3	-2.803799121E-3	1.544831765E-3
2.68	-3.980089068E-6	-2.763799021E-3	2.334956624E-3
2.69	-1.938550755E-4	-2.732830305E-3	2.429894108E-3
2.7	-1.938550755E-4	-2.693799122E-3	1.544831765E-3
2.71	6.731449026E-4	-2.662830424E-3	1.449894282E-3
2.72	-1.098863336E-4	-2.632830307E-3	2.334956624E-3
2.73	-1.070855081E-3	-2.593799105E-3	1.544831765E-3
2.74	-2.787925914E-4	-1.686799132E-3	3.220018967E-3
2.75	-1.059886347E-3	1.711695682E-4	1.639769248E-3
2.7600000000000002	-2.687925873E-4	3.600758130E-4	1.449894282E-3
2.77	1.569176063E-3	1.227075770E-3	1.449894282E-3
2.7800000000000002	-8.809800922E-4	1.311044531E-3	2.334956624E-3
2.79	-2.787925914E-4	1.301044548E-3	1.544831765E-3
2.8000000000000003	-1.838550925E-4	4.150133310E-4	1.449894282E-3
2.81	6.741136509E-4	-5.469241647E-4	5.648316035E-4
2.82	7.571136656E-4	-6.308928879E-4	1.354956763E-3
2.83	-1.198863376E-4	-2.372955410E-3	2.334956624E-3
2.84	-2.138550881E-4	-2.523799056E-3	1.544831765E-3
2.85	-1.089886301E-3	-2.492830340E-3	1.449894282E-3
2.86	5.682074207E-4	-2.462830391E-3	1.449894282E-3
2.87	7.380824058E-4	-2.432830274E-3	2.334956624E-3
2.88	-1.015917521E-3	2.072008409E-4	2.429894108E-3
2.89	-3.097613308E-4	4.900758250E-4	1.544831765E-3
2.9	6.621761667E-4	2.251169485E-3	2.334956624E-3
2.91	7.471136405E-4	4.156013339E-3	1.544831765E-3
2.92	-1.005917538E-3	5.170950785E-3	2.334956624E-3
2.93	-3.087925825E-4	6.939888116E-3	1.544831765E-3
2.94	-2.138550881E-4	6.171794446E-3	2.334956624E-3
2.95	-2.138550881E-4	5.121794553E-3	1.544831765E-3
2.96	1.529176124E-3	4.956857002E-3	1.449894282E-3
2.97	-4.494883256E-5	3.152857021E-3	1.449894282E-3
2.98	6.241136450E-4	2.056950794E-3	2.334956624E-3
2.99	-1.598863418E-4	1.056950816E-3	2.429894108E-3
3.0	-1.129886324E-3	-7.829554146E-4	1.544831765E-3
3.0100000000000002	-3.478238383E-4	-1.827892885E-3	1.449894282E-3
3.02	-1.120855089E-3	-1.025830387E-3	1.449894282E-3
3.0300000000000002	5.382073785E-4	-1.796924179E-3	1.449894282E-3
3.04	-1.498863377E-4	-1.197991622E-4	1.449894282E-3
3.0500000000000003	-2.528863394E-4	1.813106989E-3	1.449894282E-3
3.06	6.131449091E-4	3.734075810E-3	2.334956624E-3
3.0700000000000003	-1.608550901E-4	3.865888411E-3	1.544831765E-3
3.08	-2.538550900E-4	5.566982131E-3	1.449894282E-3
3.09	-2.357925787E-4	5.659763194E-3	5.648316035E-4
3.1	-1.100855035E-3	4.710825588E-3	1.354956763E-3
3.11	-1.175792561E-3	5.431919446E-3	1.449894282E-3
3.12	-1.164823829E-3	3.713825749E-3	2.334956624E-3
3.13	-2.697613357E-4	1.731888263E-3	1.544831765E-3
3.14	-1.040855043E-3	-2.210179169E-4	1.449894282E-3
3.15	3.163776984E-4	-4.024487280E-4	1.449894282E-3
3.16	-8.877461450E-4	-2.085038472E-3	5.897836113E-4
3.17	6.372386466E-4	-2.283799073E-3	1.354956763E-3
3.18	-5.891757702E-5	-2.252830376E-3	1.449894282E-3
3.19	7.131448834E-4	-1.337767916E-3	1.449894282E-3
3.2	-6.085507824E-5	-1.230892851E-3	1.449894282E-3
3.21	-1.538550736E-4	-1.211861624E-3	1.449894282E-3
3.22	7.221761602E-4	-3.158304035E-4	1.449894282E-3
3.23	-9.359175592E-4	6.470758218E-4	1.449894282E-3
3.24	6.282074119E-4	7.310445848E-4	1.449894282E-3
3.25	8.071136317E-4	1.597075878E-3	2.334956624E-3
3.2600000000000002	7.971136442E-4	7.959820948E-4	1.544831765E-3
3.27	7.780823844E-4	-1.578929026E-4	1.449894282E-3
3.2800000000000002	7.671136486E-4	-1.992955322E-3	1.449894282E-3
3.29	7.661449002E-4	-3.028861635E-3	2.334956624E-3
3.3000000000000003	-1.098863336E-4	-3.074767801E-3	2.429894108E-3
3.31	-2.038550818E-4	-3.033799103E-3	1.544831765E-3
3.3200000000000003	-1.948238261E-4	-2.975736533E-3	5.648316035E-4
3.33	6.731449026E-4	-2.933799086E-3	1.354956763E-3
3.34	-1.098863336E-4	-3.760799195E-3	1.449894282E-3
3.35	6.631449173E-4	-2.937767824E-3	2.334956624E-3
3.36	7.471136405E-4	-2.803799121E-3	2.429894108E-3
3.37	-1.298863251E-4	-2.763799021E-3	1.544831765E-3
3.38	-2.148238365E-4	-1.856799029E-3	1.449894282E-3
3.39	6.531448900E-4	1.169607608E-6	2.334956624E-3
3.4	-1.298863251E-4	-6.769241324E-4	1.544831765E-3
3.41	-2.238550711E-4	1.061070827E-4	2.334956624E-3
3.42	-1.099886284E-3	1.085138318E-3	3.314956450E-3
3.43	-3.178238171E-4	2.950133276E-4	1.639769248E-3
3.44	-2.238550711E-4	-6.669241494E-4	1.449894282E-3
3.45	-2.148238365E-4	-2.493924145E-3	2.334956624E-3
3.46	-1.089886301E-3	-2.652830273E-3	2.429894108E-3
3.47	-2.987925784E-4	-2.622830306E-3	2.429894108E-3
3.48	6.721761520E-4	-3.459830230E-3	2.429894108E-3
3.49	-9.768863327E-4	-3.504767966E-3	1.544831765E-3
3.5	5.882073867E-4	-2.587767860E-3	1.449894282E-3
3.5100000000000002	-9.085509487E-5	-2.462830391E-3	2.334956624E-3
3.52	6.831448856E-4	-2.423799039E-3	1.544831765E-3
3.5300000000000002	-9.578550309E-4	-2.392830324E-3	1.449894282E-3
3.54	6.082074038E-4	-6.107678864E-4	2.334956624E-3
3.5500000000000003	-2.707980165E-3	1.323107069E-3	2.429894108E-3
3.56	-1.304698832E-3	3.244075729E-3	1.544831765E-3
3.5700000000000003	-2.197613275E-4	3.384919379E-3	1.449894282E-3
3.58	-9.998862698E-4	4.219981956E-3	1.449894282E-3
3.59	-1.075792544E-3	3.388888098E-3	1.449894282E-3
3.6	-1.931823854E-3	2.377919539E-3	1.449894282E-3
3.61	-2.537300891E-4	1.385982066E-3	2.334956624E-3
3.62	-5.482383113E-5	-4.619866511E-4	1.544831765E-3
3.63	8.131448555E-4	2.261070862E-4	1.449894282E-3
3.64	8.971136140E-4	-5.559553994E-4	1.449894282E-3
3.65	1.009182089E-4	-1.428921687E-3	1.449894282E-3
3.66	7.713007873E-4	-1.583200524E-3	-2.960490063E-4
3.67	1.136658375E-7	-6.948616405E-4	2.145081622E-3
3.68	-9.608550815E-4	2.028169520E-3	2.429894108E-3
3.69	-1.597613363E-4	4.911075715E-3	1.544831765E-3
3.7	-7.288633199E-5	4.250825624E-3	1.449894282E-3
3.71	8.020392185E-4	5.847685422E-3	1.449894282E-3
3.72	8.871137824E-4	5.966858023E-3	1.449894282E-3
3.73	8.771136480E-4	5.896856896E-3	1.449894282E-3
3.74	8.761448996E-4	4.941794486E-3	1.449894282E-3
3.75	8.580824303E-4	3.918888129E-3	2.334956624E-3
3.7600000000000002	1.723144891E-3	2.907919570E-3	1.544831765E-3
3.77	9.220511409E-4	1.021888352E-3	1.449894282E-3
3.7800000000000002	8.171136568E-4	-3.692415681E-5	1.449894282E-3
3.79	-9.178550898E-4	-1.863924104E-3	5.648316035E-4
3.8000000000000003	-2.187925792E-4	-2.013799159E-3	1.354956763E-3
3.81	7.521761137E-4	-2.000892931E-3	2.334956624E-3
3.8200000000000003	8.461448575E-4	-1.087767884E-3	2.429894108E-3
3.83	-3.891758996E-5	-1.138929069E-4	1.544831765E-3
3.84	-1.338550843E-4	8.651383204E-4	1.449894282E-3
3.85	-1.338550843E-4	1.827075859E-3	1.449894282E-3
3.86	-1.428863295E-4	2.787075737E-3	3.220018967E-3
3.87	-1.438550790E-4	4.605044403E-3	3.409893933E-3
3.88	-1.019886323E-3	4.735888237E-3	2.524831591E-3
3.89	-2.287925832E-4	4.684919406E-3	1.544831765E-3
3.9	1.609176170E-3	4.607825768E-3	5.648316035E-4
3.91	4.408242093E-5	2.802857057E-3	1.354956763E-3
3.92	7.321761443E-4	1.706950830E-3	2.334956624E-3
3.93	-4.988633184E-5	-1.018017912E-3	2.429894108E-3
3.94	7.321761443E-4	-1.281861608E-3	1.544831765E-3
3.95	-9.349488108E-4	-3.013924016E-3	2.334956624E-3
3.96	-2.387925767E-4	-3.154767834E-3	1.544831765E-3
3.97	7.231449096E-4	-3.113799153E-3	2.334956624E-3
3.98	8.161449084E-4	-3.073799053E-3	2.429894108E-3
3.99	-9.359175592E-4	-3.024767868E-3	2.429894108E-3
4.0	6.282074119E-4	-2.983799019E-3	1.544831765E-3
4.01	8.071136317E-4	-2.943799069E-3	2.334956624E-3
4.0200000000000005	-9.368863120E-4	-2.027767861E-3	2.429894108E-3
4.03	-1.114823821E-3	-1.688304078E-4	1.544831765E-3
4.04	6.382073949E-4	2.910708807E-5	1.449894282E-3
4.05	-4.988633184E-5	-8.278929053E-4	1.449894282E-3
4.0600000000000005	-1.438550790E-4	-9.018616012E-4	5.648316035E-4
4.07	-1.348238338E-4	-8.908928608E-4	2.240019105E-3
4.08	-1.338550843E-4	-2.623924111E-3	2.429894108E-3
4.09	7.331448938E-4	-2.782830407E-3	2.429894108E-3
4.1	8.171136568E-4	-2.743799055E-3	1.544831765E-3
4.11	-5.085508020E-5	-3.579830380E-3	1.449894282E-3
4.12	7.231449096E-4	-3.606705329E-3	5.648316035E-4
4.13	8.161449084E-4	-2.687767858E-3	2.240019105E-3
4.14	8.161449084E-4	-2.544767770E-3	6.597690866E-4
4.15	8.086188445E-4	-2.517345924E-3	1.207446317E-3
4.16	-5.518321545E-5	-2.474767871E-3	1.449894282E-3
4.17	-1.738550862E-4	-1.557767915E-3	1.449894282E-3
4.18	-1.648238305E-4	-1.441861615E-3	5.648316035E-4
4.19	-1.638550799E-4	-5.458304064E-4	2.240019105E-3
4.2	-1.638550799E-4	4.170758377E-4	2.429894108E-3
4.21	-1.548238242E-4	1.386107029E-3	3.314956450E-3
4.22	-1.029886307E-3	5.859820700E-4	7.547065697E-4
4.23	1.504238688E-3	-1.243924131E-3	1.354956763E-3
4.24	2.644113575E-3	-2.287892849E-3	2.334956624E-3
4.25	8.998866370E-5	-2.361861627E-3	3.314956450E-3
4.26	-1.848238409E-4	-2.323799023E-3	1.639769248E-3
4.2700000000000005	6.921761623E-4	-2.301861542E-3	2.334956624E-3
4.28	-8.988634200E-5	-2.263799107E-3	2.429894108E-3
4.29	6.741136509E-4	-2.232830410E-3	1.544831765E-3
4.3	-9.859175674E-4	-2.211861527E-3	2.334956624E-3
4.3100000000000005	-2.797613397E-4	-2.182830308E-3	2.429894108E-3
4.32	-1.050855029E-3	4.572008308E-4	1.544831765E-3
4.33	6.082074038E-4	2.474075734E-3	1.449894282E-3
4.34	-9.649488485E-4	3.509013128E-3	1.449894282E-3
4.3500000000000005	-1.135792544E-3	4.430950552E-3	5.648316035E-4
4.36	6.179335823E-4	4.465896605E-3	4.698940843E-4
4.37	-6.987164431E-5	4.387826981E-3	4.698940843E-4
4.38	-1.638550799E-4	3.467919568E-3	3.125081448E-3
4.39	-1.638550799E-4	3.342981950E-3	1.639769248E-3
4.4	7.031448982E-4	2.427919472E-3	1.449894282E-3
4.41	-8.891759365E-5	1.435982065E-3	1.449894282E-3
4.42	-1.748238368E-4	-4.119866429E-4	1.449894282E-3
4.43	-1.738550862E-4	2.761070944E-4	1.449894282E-3
4.44	6.931449129E-4	3.700758426E-4	2.334956624E-3
4.45	-8.085508632E-5	-5.059553912E-4	2.429894108E-3
4.46	-1.040855043E-3	-5.908929048E-4	2.429894108E-3
4.47	6.182073868E-4	1.153107077E-3	1.544831765E-3
4.48	-6.085507824E-5	1.322013271E-3	5.648316035E-4
4.49	7.131448834E-4	3.930107124E-3	1.354956763E-3
4.5	7.971136442E-4	3.288888268E-3	2.334956624E-3
4.51	-7.988633796E-5	4.029982093E-3	1.544831765E-3
4.5200000000000005	-1.738550862E-4	4.941919383E-3	1.449894282E-3
4.53	6.931449129E-4	4.099856926E-3	1.449894282E-3
4.54	-8.085508632E-5	4.839982020E-3	1.449894282E-3
4.55	6.931449129E-4	3.999857096E-3	1.449894282E-3
4.5600000000000005	7.771136361E-4	2.111888363E-3	1.449894282E-3
4.57	7.580824139E-4	1.035013353E-3	1.449894282E-3
4.58	-1.198863376E-4	5.501334174E-5	1.449894282E-3
4.59	-1.089886301E-3	-3.992415939E-5	2.334956624E-3
4.6000000000000005	-1.165792578E-3	-3.992415939E-5	1.544831765E-3
4.61	5.882073867E-4	-1.782955308E-3	2.334956624E-3
4.62	7.580824139E-4	-2.088303990E-4	2.429894108E-3
4.63	-1.108550819E-4	8.651383204E-4	2.429894108E-3
4.64	6.631449173E-4	9.420133489E-4	1.544831765E-3
4.65	3.459079657E-6	2.453287918E-3	1.449894282E-3
4.66	6.376334689E-4	3.693848689E-3	1.449894282E-3
4.67	-1.298863251E-4	2.011888328E-3	1.449894282E-3
4.68	-2.238550711E-4	3.563107164E-3	2.334956624E-3
4.69	-2.238550711E-4	1.952857028E-3	6.597690866E-4
4.7	-2.238550711E-4	8.659821021E-4	1.354956763E-3
4.71	-2.238550711E-4	-9.692415853E-5	1.449894282E-3
4.72	-1.090855049E-3	-1.056924139E-3	5.648316035E-4
4.73	-1.174823812E-3	-2.874892816E-3	4.698940843E-4
4.74	-1.155792595E-3	-3.023799120E-3	1.354956763E-3
4.75	-2.778238430E-4	-2.983799019E-3	2.334956624E-3
4.76	-1.748238368E-4	-3.801767876E-3	6.597690866E-4
4.7700000000000005	-1.828863419E-4	-3.826705328E-3	4.698940843E-4
4.78	-1.838550925E-4	-2.907767857E-3	3.125081448E-3
4.79	6.921761623E-4	-2.773799172E-3	1.639769248E-3
4.8	-9.749488315E-4	-2.733799072E-3	2.334956624E-3
4.8100000000000005	-2.787925914E-4	-1.826799080E-3	1.544831765E-3
4.82	-1.748238368E-4	-8.358303794E-4	2.334956624E-3
4.83	-1.648238305E-4	1.361070783E-4	2.429894108E-3
4.84	-1.638550799E-4	1.097075802E-3	1.544831765E-3
4.8500000000000005	7.031448982E-4	1.172013331E-3	5.648316035E-4
4.86	-7.085508228E-5	-5.819866335E-4	2.240019105E-3
4.87	6.941136635E-4	-1.627892852E-3	1.544831765E-3
4.88	-8.085508632E-5	-2.568861671E-3	1.449894282E-3
4.89	6.841136362E-4	-2.623799072E-3	1.449894282E-3
4.9	-9.988632953E-5	-2.592830357E-3	2.334956624E-3
4.91	-1.848238409E-4	-3.420799046E-3	1.544831765E-3
4.92	-1.838550925E-4	-2.594458251E-3	1.449894282E-3
4.93	6.825599799E-4	-2.453823528E-3	1.449894282E-3
4.94	7.671136486E-4	-2.413799056E-3	1.449894282E-3
4.95	-1.098863336E-4	-2.382830341E-3	2.334956624E-3
4.96	6.631449173E-4	-2.343799157E-3	1.544831765E-3
4.97	7.380824058E-4	-5.697991429E-4	2.334956624E-3
4.98	-1.308550735E-4	1.372138243E-3	2.429894108E-3
4.99	-2.238550711E-4	6.750133040E-4	6.597690866E-4
5.0	6.431449070E-4	5.710445772E-4	4.698940843E-4
5.01	-1.398863292E-4	-2.969241493E-4	1.354956763E-3
5.0200000000000005	-2.338550774E-4	-3.808928912E-4	1.449894282E-3
5.03	-1.100855035E-3	-1.246924098E-3	1.449894282E-3
5.04	5.582073956E-4	-1.312830389E-3	5.648316035E-4
5.05	-1.208550905E-4	-2.167892866E-3	1.354956763E-3
5.0600000000000005	-2.138550881E-4	-2.214767772E-3	5.648316035E-4
5.07	-2.138550881E-4	-2.182830308E-3	2.240019105E-3
5.08	-2.228863228E-4	-2.152830359E-3	2.429894108E-3
5.09	6.521761416E-4	-1.246799134E-3	1.544831765E-3
5.1000000000000005	7.371136530E-4	1.478169523E-3	1.449894282E-3
5.11	-1.015917521E-3	8.659821021E-4	1.449894282E-3
5.12	-1.185792544E-3	2.513107095E-3	2.334956624E-3
5.13	-2.987925784E-4	4.416013288E-3	6.597690866E-4
5.14	-2.038550818E-4	5.403856844E-3	4.698940843E-4
5.15	-2.038550818E-4	5.433281885E-3	4.698940843E-4
5.16	6.512823380E-4	6.221766844E-3	1.342847044E-3
5.17	7.471136405E-4	5.371794314E-3	1.449894282E-3
5.18	7.461448876E-4	4.339856891E-3	1.449894282E-3
5.19	7.280823763E-4	4.185888240E-3	5.648316035E-4
5.2	-1.498863377E-4	1.506825833E-3	4.698940843E-4
5.21	6.231448944E-4	2.078044565E-3	4.698940843E-4
5.22	-1.017855022E-3	3.909195771E-4	1.354956763E-3
5.23	5.482074126E-4	1.076107084E-3	1.449894282E-3
5.24	-1.398863292E-4	-5.819866335E-4	1.449894282E-3
5.25	-2.248238217E-4	1.061070827E-4	1.449894282E-3
5.26	-2.238550711E-4	2.091070844E-4	1.449894282E-3
5.2700000000000005	-2.238550711E-4	2.100758350E-4	1.449894282E-3
5.28	-1.108917519E-3	1.962138345E-3	1.449894282E-3
5.29	-1.176761309E-3	2.999013418E-3	1.449894282E-3
5.3	1.454238595E-3	3.929981926E-3	1.449894282E-3
5.3100000000000005	-2.494884550E-5	4.850950584E-3	1.449894282E-3
5.32	6.621761667E-4	5.770950847E-3	2.334956624E-3
5.33	-9.959175504E-4	4.911794387E-3	1.544831765E-3
5.34	5.682074207E-4	4.764919606E-3	2.334956624E-3
5.3500000000000005	-1.198863376E-4	3.838888265E-3	2.429894108E-3
5.36	-2.138550881E-4	1.960919497E-3	2.429894108E-3
5.37	-1.089886301E-3	1.801333114E-5	1.544831765E-3
5.38	-1.174823812E-3	-1.912955445E-3	2.334956624E-3
5.39	-2.887925744E-4	-2.948861603E-3	1.544831765E-3
5.4	6.731449026E-4	-3.003799154E-3	1.449894282E-3
5.41	7.571136656E-4	-2.096799180E-3	1.449894282E-3
5.42	-1.198863376E-4	-1.972830310E-3	1.449894282E-3
5.43	6.621761667E-4	-1.066799152E-3	1.449894282E-3
5.44	-1.198863376E-4	-9.608929282E-4	1.449894282E-3
5.45	1.529176124E-3	-8.389291448E-5	2.334956624E-3
5.46	-4.494883256E-5	1.762138315E-3	1.544831765E-3
5.47	-1.109886269E-3	1.055982068E-3	1.449894282E-3
5.48	-1.185792544E-3	1.827075859E-3	1.449894282E-3
5.49	-1.174823812E-3	1.025982035E-3	1.449894282E-3
5.5	-2.887925744E-4	-8.039241380E-4	1.449894282E-3
5.51	-1.060855096E-3	-2.723924127E-3	1.449894282E-3
5.5200000000000005	-1.144823779E-3	-2.873799020E-3	1.449894282E-3
5.53	-2.587925743E-4	-3.709830346E-3	1.449894282E-3
5.54	-1.638550799E-4	-3.745736697E-3	1.449894282E-3
5.55	1.579176048E-3	-3.676705396E-3	1.449894282E-3
5.5600000000000005	1.408240128E-5	-2.757767925E-3	1.449894282E-3
5.57	1.560144828E-3	-2.623799072E-3	2.334956624E-3
5.58	8.520511577E-4	-2.592830357E-3	2.429894108E-3
5.59	-1.108550819E-4	-2.553799173E-3	1.544831765E-3
5.6000000000000005	-2.038550818E-4	-2.513799073E-3	1.449894282E-3
5.61	-1.070855081E-3	1.012263343E-3	5.648316035E-4
5.62	-1.145792527E-3	4.959820877E-4	1.354956763E-3
5.63	-2.587925743E-4	1.276107030E-3	1.449894282E-3
5.64	-1.548238242E-4	4.759820706E-4	5.648316035E-4
5.65	-1.538550736E-4	3.800758256E-4	4.698940843E-4
5.66	-1.449473969E-4	-1.339106639E-3	1.342847044E-3
5.67	-1.528863241E-4	-1.531861640E-3	1.449894282E-3
5.68	-1.538550736E-4	-2.378861631E-3	1.449894282E-3
5.69	7.131448834E-4	-2.433799022E-3	5.648316035E-4
5.7	7.971136442E-4	-2.393799072E-3	1.354956763E-3
5.71	7.871136612E-4	-3.229830416E-3	1.449894282E-3
5.72	-8.988634200E-5	-2.407767793E-3	1.449894282E-3
5.73	1.550144843E-3	-2.273799090E-3	1.449894282E-3
5.74	-8.919488236E-4	-2.242830393E-3	1.449894282E-3
5.75	-1.164823829E-3	-2.203799041E-3	5.648316035E-4
5.76	5.882073867E-4	-1.287767899E-3	1.354956763E-3
5.7700000000000005	-9.988632953E-5	-3.048616511E-4	2.334956624E-3
5.78	6.731449026E-4	6.661070417E-4	1.544831765E-3
5.79	-1.098863336E-4	1.627075827E-3	1.449894282E-3
5.8	6.721761520E-4	2.569013235E-3	1.449894282E-3
5.8100000000000005	-9.949488020E-4	1.765981979E-3	2.334956624E-3
5.82	5.682074207E-4	1.652013260E-3	2.429894108E-3
5.83	-1.198863376E-4	1.632013294E-3	2.429894108E-3
5.84	6.621761667E-4	-9.980178616E-4	2.429894108E-3
5.8500000000000005	-1.198863376E-4	4.721383236E-4	6.597690866E-4
5.86	6.621761667E-4	-2.159553971E-4	3.125081448E-3
5.87	7.471136405E-4	-3.008929084E-4	7.547065697E-4
5.88	7.371136530E-4	-2.908929044E-4	4.698940843E-4
5.89	-1.398863292E-4	-2.808928981E-4	4.698940843E-4
5.9	6.421761564E-4	5.870758306E-4	4.698940843E-4
5.91	-1.006886286E-3	2.414075826E-3	4.698940843E-4
5.92	-1.184823795E-3	2.572981954E-3	1.354956763E-3
5.93	-2.987925784E-4	5.180107049E-3	2.334956624E-3
5.94	-2.038550818E-4	6.272887939E-3	1.544831765E-3
5.95	-2.038550818E-4	6.287825522E-3	1.449894282E-3
5.96	-1.079886316E-3	6.207825658E-3	1.449894282E-3
5.97	-1.155792595E-3	3.490700900E-3	5.648316035E-4
5.98	-2.687925873E-4	4.039981925E-3	1.354956763E-3
5.99	-1.049886278E-3	3.208888368E-3	1.449894282E-3
6.0	6.082074038E-4	1.330919552E-3	5.648316035E-4
6.01	-7.988633796E-5	2.459820783E-4	2.240019105E-3
6.0200000000000005	-1.648238305E-4	1.500758322E-4	2.429894108E-3
6.03	-1.039886293E-3	-7.078928797E-4	1.544831765E-3
6.04	-2.397613251E-4	-1.666924041E-3	1.449894282E-3
6.05	7.231449096E-4	1.169607608E-6	1.449894282E-3
6.0600000000000005	-5.988632537E-5	1.933106973E-3	5.648316035E-4
6.07	-1.538550736E-4	2.092982006E-3	1.354956763E-3
6.08	-1.448238285E-4	3.824075844E-3	1.449894282E-3
6.09	-1.019886323E-3	3.964919511E-3	2.334956624E-3
6.1000000000000005	-1.104823838E-3	4.799982088E-3	2.429894108E-3
6.11	-1.094823771E-3	4.835888103E-3	1.544831765E-3
6.12	-1.997613314E-4	3.890825827E-3	5.648316035E-4
6.13	7.541136127E-4	2.877919471E-3	1.354956763E-3
6.140000000000001	8.371136228E-4	1.876950727E-3	1.449894282E-3
6.15	8.361448744E-4	-4.160984567E-4	2.186966339E-3
6.16	8.273570107E-4	-1.983560550E-3	1.568682147E-3
6.17	-5.891757702E-5	-2.939830368E-3	1.449894282E-3
6.18	-1.020855073E-3	-2.984767768E-3	5.648316035E-4
6.19	6.382073949E-4	-2.934767835E-3	1.354956763E-3
6.2	-9.168863415E-4	-2.893799154E-3	1.449894282E-3
6.21	6.482073779E-4	-2.862830289E-3	1.449894282E-3
6.22	8.271136398E-4	-2.823799087E-3	1.449894282E-3
6.23	8.171136568E-4	-1.031736603E-3	1.449894282E-3
6.24	1.683144950E-3	3.610708748E-5	2.334956624E-3
6.25	8.820511668E-4	-7.369241258E-4	2.429894108E-3
6.26	-8.988634200E-5	9.221383463E-4	2.429894108E-3
6.2700000000000005	6.831448856E-4	2.340445880E-4	1.544831765E-3
6.28	-9.085509487E-5	-1.593924182E-3	-3.202307388E-4
6.29	6.741136509E-4	-8.767991620E-4	1.260019280E-3
6.3	-1.098863336E-4	-1.646924075E-3	2.334956624E-3
6.3100000000000005	6.631449173E-4	-2.588861637E-3	1.544831765E-3
6.32	7.471136405E-4	-2.643799038E-3	1.449894282E-3
6.33	-1.298863251E-4	-2.594767853E-3	5.648316035E-4
6.34	1.519176141E-3	-2.562830408E-3	1.354956763E-3
6.3500000000000005	8.210823762E-4	-2.523799056E-3	1.449894282E-3
6.36	-1.025917593E-3	-2.492830340E-3	2.334956624E-3
6.37	-3.197613229E-4	-2.462830391E-3	1.544831765E-3
6.38	-2.148238365E-4	-2.432830274E-3	2.334956624E-3
6.390000000000001	-2.138550881E-4	-1.526799115E-3	1.544831765E-3
6.4	-2.138550881E-4	-2.287892849E-3	2.334956624E-3
6.41	1.529176124E-3	-5.917366477E-4	1.544831765E-3
6.42	-3.591757687E-5	-3.999241532E-4	1.449894282E-3
6.43	-1.099886284E-3	4.670758459E-4	2.334956624E-3
6.44	-2.997613268E-4	5.600758458E-4	1.544831765E-3
6.45	6.721761520E-4	-3.069241533E-4	1.449894282E-3
6.46	-1.098863336E-4	-1.257892918E-3	1.449894282E-3
6.47	-1.948238261E-4	-2.207892808E-3	1.449894282E-3
6.48	-1.060855096E-3	-2.272830342E-3	1.449894282E-3
6.49	-2.687925873E-4	-2.233799158E-3	1.449894282E-3
6.5	6.931449129E-4	-2.202830292E-3	5.648316035E-4
6.51	7.771136361E-4	-2.163799091E-3	1.354956763E-3
6.5200000000000005	-9.668863497E-4	-2.123799158E-3	5.648316035E-4
6.53	-2.687925873E-4	-2.101861696E-3	1.354956763E-3
6.54	-1.738550862E-4	-1.205830370E-3	2.334956624E-3
6.55	6.931449129E-4	-2.248616533E-4	2.429894108E-3
6.5600000000000005	-8.988634200E-5	1.613107128E-3	1.544831765E-3
6.57	6.831448856E-4	2.658044520E-3	1.449894282E-3
6.58	-9.668863497E-4	3.580950692E-3	5.648316035E-4
6.59	5.982074118E-4	3.633950746E-3	2.240019105E-3
6.6000000000000005	7.771136361E-4	5.346013366E-3	2.429894108E-3
6.61	-9.988632953E-5	3.732856985E-3	1.544831765E-3
6.62	-1.060855096E-3	2.627919505E-3	1.449894282E-3
6.63	-1.135792544E-3	1.626950779E-3	1.449894282E-3
6.640000000000001	-2.487925702E-4	6.450133129E-4	1.449894282E-3
6.65	-1.463902710E-4	5.426110223E-4	7.183430863E-4
6.66	-1.351890686E-4	-2.918615857E-4	1.319163726E-3
6.67	-1.338550843E-4	-1.295021150E-3	2.334012788E-3
6.68	-1.338550843E-4	-4.867991425E-4	6.597690866E-4
6.69	-1.009886339E-3	1.353107023E-3	2.240019105E-3
6.7	-1.085792536E-3	1.522013295E-3	1.544831765E-3
6.71	6.591761183E-4	3.245044478E-3	1.449894282E-3
6.72	8.371136228E-4	4.269982057E-3	2.334956624E-3
6.73	8.271136398E-4	4.314919475E-3	2.429894108E-3
6.74	-4.988633184E-5	4.264919374E-3	1.544831765E-3
6.75	-1.438550790E-4	5.072888079E-3	5.648316035E-4
6.76	-1.348238338E-4	5.105888167E-3	1.354956763E-3
6.7700000000000005	7.331448938E-4	3.293825718E-3	1.449894282E-3
6.78	8.261448914E-4	2.196950742E-3	1.449894282E-3
6.79	-9.349488108E-4	1.205982083E-3	3.220018967E-3
6.8	-2.387925767E-4	-6.419866247E-4	1.639769248E-3
6.8100000000000005	-1.019886323E-3	5.513833669E-5	2.334956624E-3
6.82	-1.104823838E-3	1.500758322E-4	2.429894108E-3
6.83	-1.094823771E-3	1.500758322E-4	6.597690866E-4
6.84	6.672386887E-4	1.591070773E-4	2.240019105E-3
6.8500000000000005	-1.988633173E-5	1.036107061E-3	6.597690866E-4
6.86	7.441136285E-4	1.121044574E-3	4.698940843E-4
6.87	-3.988633832E-5	2.854075824E-3	1.354956763E-3
6.88	-1.248238286E-4	3.879982161E-3	1.449894282E-3
6.890000000000001	-9.908550351E-4	3.039857068E-3	5.648316035E-4
6.9	-1.987925831E-4	2.036950828E-3	4.698940843E-4
6.91	7.721761661E-4	1.922013361E-3	1.354956763E-3
6.92	8.571136820E-4	1.892981992E-3	1.449894282E-3
6.93	-8.959175340E-4	9.959820675E-4	1.449894282E-3
6.94	-1.074823796E-3	2.404459064E-5	1.449894282E-3
6.95	-1.797613339E-4	-2.688986538E-3	1.449894282E-3
6.96	-8.385508777E-5	-2.924767852E-3	5.648316035E-4
6.97	1.659176093E-3	-2.883799171E-3	1.354956763E-3
6.98	9.520511741E-4	-2.834767836E-3	1.449894282E-3
6.99	1.723144891E-3	-2.802830373E-3	1.449894282E-3
7.0	9.310823756E-4	-2.763799021E-3	2.334956624E-3
7.01	-3.988633832E-5	-2.723799071E-3	6.597690866E-4
7.0200000000000005	7.421761284E-4	-2.674767904E-3	1.354956763E-3
7.03	-3.988633832E-5	-1.757767948E-3	5.648316035E-4
7.04	7.331448938E-4	-7.658304142E-4	1.354956763E-3
7.05	8.171136568E-4	-1.536924075E-3	2.334956624E-3
7.0600000000000005	-9.359175592E-4	1.311695941E-4	1.544831765E-3
7.07	-2.478238219E-4	-5.469241647E-4	2.334956624E-3
7.08	-1.538550736E-4	2.361070902E-4	1.544831765E-3
7.09	-1.878823795E-3	-1.403924136E-3	-3.202307388E-4
7.1000000000000005	-1.160730062E-3	-2.429830303E-3	-5.101057410E-4
7.11	6.882074031E-4	-2.474767871E-3	-5.101057410E-4
7.12	1.136658375E-7	-2.442830425E-3	2.145081622E-3
7.13	-1.845917592E-3	-2.403799073E-3	6.597690866E-4
7.140000000000001	-1.997729986E-3	-2.354767889E-3	-4.151682580E-4
7.15	3.722740823E-4	-3.111623171E-3	1.078117955E-3
7.16	7.117403573E-5	-2.390423464E-3	1.449894282E-3
7.17	-3.385508539E-5	-2.243799141E-3	1.449894282E-3
7.18	-3.385508539E-5	-2.203799041E-3	1.449894282E-3
7.19	-9.098863244E-4	-1.305830368E-3	5.648316035E-4
7.2	-1.278238342E-4	-3.158304035E-4	2.240019105E-3
7.21	8.331449085E-4	6.470758218E-4	1.544831765E-3
7.22	5.914491395E-5	7.400758195E-4	1.449894282E-3
7.23	8.241136738E-4	7.310445848E-4	5.648316035E-4
7.24	4.011366999E-5	-1.369241522E-4	1.354956763E-3
7.25	8.131448555E-4	-2.208929058E-4	1.449894282E-3
7.26	8.971136140E-4	-1.086924092E-3	1.449894282E-3
7.2700000000000005	2.011366340E-5	-2.028861657E-3	1.449894282E-3
7.28	-7.385508147E-5	-2.083799058E-3	-3.202307388E-4
7.29	-9.408550280E-4	-2.043799108E-3	-5.101057410E-4
7.3	-1.024823788E-3	-2.021861645E-3	3.749566012E-4
7.3100000000000005	-1.297613309E-4	-1.116799169E-3	1.354956763E-3
7.32	-9.008550898E-4	-1.868861575E-3	-1.205293249E-3
7.33	-9.757925368E-4	6.681695950E-4	2.800191001E-4
7.34	-9.648237964E-4	1.817075876E-3	1.354956763E-3
7.3500000000000005	7.882074195E-4	3.644075795E-3	1.449894282E-3
7.36	1.001136638E-4	4.642888251E-3	-3.202307388E-4
7.37	-1.754948812E-3	5.560950681E-3	1.260019280E-3
7.38	-1.916761356E-3	5.559763328E-3	-3.202307388E-4
7.390000000000001	-1.010730047E-3	5.477825630E-3	3.749566012E-4
7.4	-3.782383304E-5	4.539856924E-3	1.354956763E-3
7.41	5.614491233E-5	3.518888400E-3	1.449894282E-3
7.42	-8.018238252E-4	2.507919541E-3	5.648316035E-4
7.43	-8.848238392E-4	6.309195629E-4	-4.151682580E-4
7.44	1.207409141E-6	4.310445822E-4	1.260019280E-3
7.45	9.721761114E-4	4.300758338E-4	5.648316035E-4
7.46	1.057113622E-3	4.210445992E-4	4.698940843E-4
7.47	1.620511583E-4	-4.469241483E-4	1.354956763E-3
7.48	7.517616119E-5	3.361070856E-4	1.449894282E-3
7.49	7.614491110E-5	1.306107068E-3	1.449894282E-3
7.5	7.614491110E-5	2.258044454E-3	1.449894282E-3
7.51	-7.818238560E-4	3.199013096E-3	1.449894282E-3
7.5200000000000005	-8.648237891E-4	4.129981923E-3	1.449894282E-3
7.53	2.120741573E-5	5.069013086E-3	3.229050370E-3
7.54	-1.626886344E-3	4.220825825E-3	7.556753361E-4
7.55	-1.777729987E-3	4.065888108E-3	4.698940843E-4
7.5600000000000005	-1.755792507E-3	3.996857107E-3	-4.151682580E-4
7.57	-8.416987955E-4	3.050825800E-3	-1.395168252E-3
7.58	9.991760995E-4	2.037919576E-3	2.800191001E-4
7.59	-5.659175448E-4	1.045982085E-3	1.363987829E-3
7.6000000000000005	1.221761594E-4	9.410446006E-4	5.658003338E-4
7.61	2.161449032E-4	-1.688017807E-3	1.363987829E-3
7.62	2.071136580E-4	-1.066799152E-3	5.658003338E-4
7.63	1.082176111E-3	-9.518616094E-4	4.698940843E-4
7.640000000000001	2.034113662E-3	-9.408928690E-4	1.354956763E-3
7.65	-2.338661948E-4	-1.532537811E-4	6.551137449E-4
7.66	-1.630029905E-3	3.007583812E-5	-4.030019289E-4
7.67	-8.307300641E-4	3.007583812E-5	3.749566012E-4
7.68	-1.600855107E-3	3.007583812E-5	-4.151682580E-4
7.69	-7.997613246E-4	1.791169519E-3	3.839880041E-4
7.7	1.721761631E-4	1.076950782E-3	4.798942536E-4
7.71	-1.476886237E-3	1.040445820E-4	-4.141994916E-4
7.72	-2.521823783E-3	-8.478928747E-4	3.839880041E-4
7.73	3.230115256E-5	-9.308928860E-4	4.798942536E-4
7.74	-1.417855081E-3	-2.654892817E-3	-4.141994916E-4
7.75	-7.097613333E-4	-2.794767886E-3	-5.101057410E-4
7.76	-1.480855125E-3	-2.753799038E-3	3.839880041E-4
7.7700000000000005	1.782074012E-4	-2.713799088E-3	4.798942536E-4
7.78	2.118207309E-3	-2.682830390E-3	2.250019275E-3
7.79	-3.309800952E-4	-2.634767804E-3	-2.243244893E-4
7.8	-1.471823722E-3	-2.593799105E-3	-5.101057410E-4
7.8100000000000005	-2.367636191E-3	-2.508642832E-3	-2.280230762E-3
7.82	-1.550730043E-3	-1.596799099E-3	1.941130019E-4
7.83	-5.687925854E-4	-6.058303976E-4	4.798942536E-4
7.84	-4.648238121E-4	3.570758465E-4	-4.051682569E-4
7.8500000000000005	-2.206886292E-3	4.500758464E-4	-5.001057580E-4
7.86	-2.348698699E-3	1.308044569E-3	-5.001057580E-4
7.87	-1.440730043E-3	-3.429554170E-4	-5.001057580E-4
7.88	-2.201823777E-3	-1.396924122E-3	3.849567525E-4
7.890000000000001	-1.390730044E-3	-1.462830414E-3	1.364956596E-3
7.9	-3.997613222E-4	-2.326924042E-3	1.459894079E-3
7.91	-3.038550749E-4	-2.383799089E-3	-3.102307738E-4
7.92	-3.038550749E-4	-2.343799157E-3	3.849567525E-4
7.930000000000001	-2.948238192E-4	-3.170798930E-3	-4.051682569E-4
7.94	-1.160855026E-3	-2.329705389E-3	-5.001057580E-4
7.95	-1.226761317E-3	-2.184767823E-3	-1.385168269E-3
7.96	-1.196761284E-3	-2.143799124E-3	-1.480105770E-3
7.97	-1.175792561E-3	-2.112830427E-3	-5.950432591E-4
7.98	-2.887925744E-4	-1.197767883E-3	-5.001057580E-4
7.99	-1.051823777E-3	-2.148616545E-4	-5.001057580E-4
8.0	-1.134823787E-3	7.470758365E-4	3.849567525E-4
8.01	1.503269939E-3	2.592138219E-3	2.250019275E-3
8.02	2.505117171E-5	1.876950727E-3	6.697692559E-4
8.03	-1.638550799E-4	2.638044536E-3	4.798942536E-4
8.040000000000001	-1.030855058E-3	2.693950853E-3	4.798942536E-4
8.05	-2.387925767E-4	9.199508387E-4	4.798942536E-4
8.06	-1.438550790E-4	-1.369241522E-4	4.798942536E-4
8.07	-1.010855089E-3	-2.208929058E-4	-4.051682569E-4
8.08	-1.094823771E-3	-1.962955368E-3	-5.001057580E-4
8.09	-1.997613314E-4	-2.113799175E-3	3.849567525E-4
8.1	-1.846886343E-3	-3.397991610E-4	1.364956596E-3
8.11	-2.873761262E-3	7.170757983E-4	-3.102307738E-4
8.120000000000001	-3.086675770E-4	1.668044516E-3	-5.001057580E-4
8.13	-1.482383449E-5	1.732982059E-3	-1.385168269E-3
8.14	-8.718238016E-4	3.427950790E-3	-1.480105770E-3
8.15	-9.638550481E-4	4.294410760E-3	-7.431294403E-4
8.16	-9.387854720E-5	4.432199277E-3	-1.361294661E-3
8.17	2.614491309E-5	5.232888180E-3	2.900192514E-4
8.18	-8.408550979E-4	5.247825799E-3	-4.051682569E-4
8.19	-9.248237803E-4	3.415763383E-3	-5.001057580E-4
8.2	-4.782383116E-5	3.174919549E-3	-5.001057580E-4
8.21	-8.027925752E-4	1.381888299E-3	-1.385168269E-3
8.22	-8.848238392E-4	-5.619866675E-4	-5.950432591E-4
8.23	-8.748238562E-4	-1.616924121E-3	3.849567525E-4
8.24	2.176157495E-6	-2.558861520E-3	4.798942536E-4
8.25	-1.637855079E-3	-2.604767836E-3	-4.051682569E-4
8.26	-9.387925668E-4	-8.207678811E-4	1.270019095E-3
8.27	-8.257925963E-4	-1.496924134E-3	5.748317367E-4
8.28	-8.057925462E-4	-6.958303889E-4	-4.051682569E-4
8.290000000000001	7.217616177E-5	1.143107093E-3	-1.385168269E-3
8.3	-7.098862956E-4	3.055044605E-3	-5.950432591E-4
8.31	-1.670854998E-3	4.946982067E-3	3.849567525E-4
8.32	-8.697613319E-4	4.181794659E-3	-4.051682569E-4
8.33	-7.557925380E-4	4.892888385E-3	-5.001057580E-4
8.34	-7.448237976E-4	4.925888137E-3	3.849567525E-4
8.35	-7.348238146E-4	3.980825860E-3	-4.051682569E-4
8.36	-7.248238316E-4	2.082856994E-3	-5.001057580E-4
8.370000000000001	-7.057925719E-4	1.862982025E-3	-5.001057580E-4
8.38	1.048207355E-3	-7.770491144E-4	-5.001057580E-4
8.39	-5.249488133E-4	-1.032830399E-3	-5.001057580E-4
8.4	1.621761591E-4	-1.887892792E-3	3.849567525E-4
8.41	-6.018238383E-4	-2.819830368E-3	-4.051682569E-4
8.42	-6.848238109E-4	-2.873799020E-3	3.849567525E-4
8.43	-1.550855015E-3	-2.824767835E-3	4.798942536E-4
8.44	-7.407300728E-4	-2.783799155E-3	4.798942536E-4
8.45	-1.510855079E-3	-1.858736544E-3	-4.051682569E-4
8.46	-7.007300566E-4	-8.658303705E-4	-5.001057580E-4
8.47	2.721761585E-4	-7.518616607E-4	-5.001057580E-4
8.48	3.661449045E-4	1.002138304E-3	-5.001057580E-4
8.49	-5.098863083E-4	3.050133316E-4	-5.001057580E-4
8.5	-6.038550543E-4	2.100758350E-4	3.849567525E-4
8.51	-5.857925849E-4	2.010445793E-4	-4.051682569E-4
8.52	-5.748238115E-4	-1.542955341E-3	3.849567525E-4
8.53	2.931448984E-4	-2.551767782E-3	-1.290230767E-3
8.540000000000001	-4.718238286E-4	-2.603799088E-3	2.900192514E-4
8.55	-5.548238410E-4	-3.412736728E-3	-1.290230767E-3
8.56	-5.357925813E-4	-4.330799177E-3	2.900192514E-4
8.57	3.241136634E-4	-3.462611614E-3	-1.290230767E-3
8.58	-2.202917575E-3	-4.190799042E-3	2.900192514E-4
8.59	-7.046988181E-4	-3.358736417E-3	4.798942536E-4
8.6	3.531448896E-4	-2.329705389E-3	-4.051682569E-4
8.61	-4.208550721E-4	-2.202830292E-3	3.849567525E-4
8.620000000000001	3.531448896E-4	-2.163799091E-3	-4.051682569E-4
8.63	-4.298863067E-4	-2.114767924E-3	-5.001057580E-4
8.64	3.521761413E-4	-2.091861544E-3	3.849567525E-4
8.65	4.461448850E-4	-5.219538752E-4	1.259899623E-3
8.66	-4.152598970E-4	-1.199241574E-4	-2.806763794E-4
8.67	3.431449066E-4	-9.959553964E-4	3.849567525E-4
8.68	-4.308550551E-4	-1.938861633E-3	-4.051682569E-4
8.69	3.431449066E-4	-2.002830428E-3	3.849567525E-4
8.700000000000001	-4.308550551E-4	-1.963799076E-3	-4.051682569E-4
8.71	3.521761413E-4	-1.932830360E-3	-5.001057580E-4
8.72	4.280823947E-4	-2.778861519E-3	3.849567525E-4
8.73	-4.408550824E-4	-1.948736559E-3	-4.051682569E-4
8.74	-5.248238033E-4	-1.822830361E-3	3.849567525E-4
8.75	3.521761413E-4	-1.801861647E-3	4.798942536E-4
8.76	-4.208550721E-4	-1.754767808E-3	-1.290230767E-3
8.77	-5.048238328E-4	-1.722830345E-3	-5.950432591E-4
8.78	-1.370855042E-3	4.116958171E-5	-5.001057580E-4
8.790000000000001	-1.436786709E-3	1.096263751E-3	-5.001057580E-4
8.8	3.180310650E-4	1.181045474E-3	-5.001057580E-4
8.81	-3.608550763E-4	2.886982027E-3	-1.385168269E-3
8.82	4.131449229E-4	2.166950793E-3	2.900192514E-4
8.83	-1.227855033E-3	1.166950816E-3	-4.051682569E-4
8.84	1.214238631E-3	1.919013221E-3	-5.001057580E-4
8.85	6.020511678E-4	2.399508267E-4	3.849567525E-4
8.86	-3.698863110E-4	5.007583907E-5	-4.051682569E-4
8.870000000000001	4.121761745E-4	-8.078928518E-4	-5.001057580E-4
8.88	-3.698863110E-4	-1.757892818E-3	-5.001057580E-4
8.89	4.031448978E-4	-1.813799126E-3	-5.001057580E-4
8.9	-3.798863406E-4	-1.782830429E-3	3.849567525E-4
8.91	-4.648252235E-4	-8.859701216E-4	4.798942536E-4
8.92	3.940992764E-4	1.811032156E-3	-1.290201085E-3
8.93	-3.718238122E-4	2.929981930E-3	-5.950432591E-4
8.94	3.941136632E-4	2.956857029E-3	-1.385168269E-3
8.950000000000001	-3.808550889E-4	2.922982087E-3	2.900192514E-4
8.96	-4.648238121E-4	4.617950817E-3	-4.051682569E-4
8.97	4.121761745E-4	5.621919346E-3	3.849567525E-4
8.98	-1.245917587E-3	3.894794546E-3	4.798942536E-4
8.99	-5.307300660E-4	2.769856968E-3	-4.051682569E-4
9.0	-4.338550636E-4	3.519013279E-3	3.849567525E-4
9.01	-1.291823828E-3	2.679857103E-3	-4.051682569E-4
9.02	-4.987925692E-4	8.009195626E-4	-1.385168269E-3
9.03	4.721761657E-4	6.100758075E-4	2.900192514E-4
9.040000000000001	-3.098863198E-4	-2.008986575E-3	4.798942536E-4
9.05	-4.038550680E-4	-1.377767848E-3	-4.051682569E-4
9.06	-3.948238334E-4	4.811696004E-4	3.849567525E-4
9.07	-3.848238083E-4	-1.969241539E-4	-4.051682569E-4
9.08	-3.928863322E-4	-2.808928981E-4	3.849567525E-4
9.09	-3.848238083E-4	1.454075788E-3	-1.290230767E-3
9.1	-3.657925861E-4	2.470950715E-3	-1.480105770E-3
9.11	-3.638550894E-4	4.266982086E-3	-5.950432591E-4
9.120000000000001	5.121761444E-4	2.652856957E-3	3.939878189E-4
9.13	-2.608550645E-4	6.809195621E-4	-3.951682919E-4
9.14	-2.087584076E-3	-3.677588178E-4	-4.901057750E-4
9.15	-6.594720075E-4	-1.238433757E-3	3.129881951E-4
9.16	5.525778192E-4	-1.392081755E-3	4.898940504E-4
9.17	-2.108550773E-4	-2.229830270E-3	-1.289262037E-3
9.18	-3.038550749E-4	-2.292830308E-3	2.990503178E-4
9.19	5.721761378E-4	-2.253799124E-3	-3.951682919E-4
9.200000000000001	6.571136492E-4	-3.089830299E-3	3.949565673E-4
9.21	-2.018238216E-4	-2.249705357E-3	-1.289262037E-3
9.22	-2.938550686E-4	-2.113799175E-3	-5.950432591E-4
9.23	5.731448884E-4	-2.082830310E-3	-5.001057580E-4
9.24	-1.918238386E-4	-2.043799108E-3	-5.001057580E-4
9.25	-2.838550856E-4	-2.003799176E-3	3.939878189E-4
9.26	-2.748238299E-4	-1.972830310E-3	-4.041995266E-4
9.27	-2.738550793E-4	-1.942830343E-3	3.939878189E-4
9.28	-2.648238236E-4	-1.903799160E-3	-4.041995266E-4
9.290000000000001	-2.548238384E-4	-9.877678677E-4	-1.385168269E-3
9.3	6.131449091E-4	-1.747892835E-3	-5.950432591E-4
9.31	-1.608550901E-4	-1.803799143E-3	-1.385168269E-3
9.32	-1.120855089E-3	-1.772830446E-3	-5.950432591E-4
9.33	5.382073785E-4	-1.733799094E-3	-5.001057580E-4
9.34	-1.408550820E-4	-2.578861654E-3	3.939878189E-4
9.35	6.331448796E-4	-2.624767821E-3	-4.041995266E-4
9.36	-1.408550820E-4	-2.583799122E-3	-5.001057580E-4
9.370000000000001	6.241136450E-4	-3.392736425E-3	-1.385168269E-3
9.38	-1.508550861E-4	-2.576799092E-3	2.900192514E-4
9.39	-2.438550837E-4	-1.558736663E-3	-1.290230767E-3
9.4	1.481113701E-3	-1.441861615E-3	-1.480105770E-3
9.41	7.720511674E-4	-1.421861640E-3	2.900192514E-4
9.42	1.543144828E-3	-1.392830355E-3	4.798942536E-4
9.43	-1.159175852E-4	-1.353799163E-3	-1.290230767E-3
9.44	-2.046886203E-3	-1.331861616E-3	-5.950432591E-4
9.450000000000001	-4.546988101E-4	-4.358304070E-4	-5.001057580E-4
9.46	-1.130855072E-3	-1.206924161E-3	-5.001057580E-4
9.47	5.279335909E-4	-1.290894254E-3	3.848184388E-4
9.48	7.071138088E-4	-1.262830835E-3	4.798942536E-4
9.49	-1.789175805E-4	-1.241861667E-3	-4.051682569E-4
9.5	-1.140855057E-3	-1.221861616E-3	3.849567525E-4
9.51	5.182074125E-4	-1.192830407E-3	-4.051682569E-4
9.52	-1.698863248E-4	-1.171861608E-3	-5.001057580E-4
9.53	6.121761607E-4	-1.151861633E-3	3.849567525E-4
9.540000000000001	-1.608550901E-4	-1.131861667E-3	-4.051682569E-4
9.55	-2.628863247E-4	-1.120892852E-3	3.849567525E-4
9.56	5.941136494E-4	6.321382892E-4	-4.051682569E-4
9.57	6.771136618E-4	1.687075734E-3	-5.001057580E-4
9.58	-1.998863204E-4	2.619982066E-3	-5.001057580E-4
9.59	-2.848238340E-4	3.549982163E-3	3.849567525E-4
9.6	-2.748238299E-4	3.585888178E-3	-4.051682569E-4
9.61	5.931448988E-4	3.534919647E-3	3.849567525E-4
9.620000000000001	-1.898863374E-4	3.493950648E-3	4.798942536E-4
9.63	5.831449135E-4	2.568888337E-3	-4.051682569E-4
9.64	-1.908550857E-4	1.566950797E-3	-5.001057580E-4
9.65	-2.757450767E-4	-1.113749168E-4	-5.001057580E-4
9.66	-2.738550793E-4	-4.710170269E-4	3.727904212E-4
9.67	-2.648238236E-4	-4.608928928E-4	-4.051682569E-4
9.68	-2.638550730E-4	-4.599241444E-4	-5.001057580E-4
9.69	6.031448840E-4	-1.317892909E-3	-5.001057580E-4
9.700000000000001	-1.046886311E-3	-1.391861607E-3	3.849567525E-4
9.71	-3.487925866E-4	1.238169558E-3	-4.051682569E-4
9.72	6.221761438E-4	1.502013329E-3	-5.001057580E-4
9.73	-1.508550861E-4	2.349013236E-3	-5.001057580E-4
9.74	-2.438550837E-4	3.279982063E-3	-5.001057580E-4
9.75	6.231448944E-4	3.324919481E-3	-5.001057580E-4
9.76	-1.035917576E-3	4.141919589E-3	-5.001057580E-4
9.77	5.372386302E-4	5.042888316E-3	-5.001057580E-4
9.78	7.080824057E-4	2.438763342E-3	-5.001057580E-4
9.790000000000001	-1.045917559E-3	2.999013418E-3	3.939878189E-4
9.8	5.182074125E-4	4.258570960E-4	-1.289262037E-3
9.81	-1.518238344E-4	-7.178929059E-4	-5.950432591E-4
9.82	-1.128917573E-3	-7.918616438E-4	-5.001057580E-4
9.83	-3.297613269E-4	-7.808929080E-4	3.939878189E-4
9.84	-2.248238217E-4	-1.628861605E-3	-1.289262037E-3
9.85	6.431449070E-4	-1.683799161E-3	-1.480105770E-3
9.86	7.271136279E-4	-7.858303802E-4	-5.950432591E-4
9.870000000000001	7.171136404E-4	-6.808928916E-4	-1.385168269E-3
9.88	-1.598863418E-4	1.961070906E-4	-5.950432591E-4
9.89	6.131449091E-4	2.900758388E-4	-5.001057580E-4
9.9	6.971136323E-4	2.810445831E-4	-1.385168269E-3
9.91	6.871136448E-4	2.800758325E-4	2.900192514E-4
9.92	-1.898863374E-4	1.147075811E-3	-4.051682569E-4
9.93	-2.838550856E-4	-1.388017935E-3	3.849567525E-4
9.94	-2.748238299E-4	-1.642830312E-3	-4.051682569E-4
9.950000000000001	-2.738550793E-4	-1.612830345E-3	-5.001057580E-4
9.96	-2.648238236E-4	-1.582830396E-3	-5.001057580E-4
9.97	6.031448840E-4	-1.552830363E-3	-5.001057580E-4
9.98	6.780824101E-4	-1.513799086E-3	-1.385168269E-3
9.99	6.671136367E-4	-3.234892763E-3	-5.950432591E-4
10.0	6.661448838E-4	-2.498736556E-3	-5.001057580E-4
10.01	6.571136492E-4	-2.363799123E-3	-5.001057580E-4
10.02	6.561449008E-4	-1.465830385E-3	1.270019095E-3
10.03	-2.198863330E-4	-1.351861666E-3	-3.102307738E-4
10.040000000000001	5.531449179E-4	-1.331861616E-3	-5.001057580E-4
10.05	-2.298863370E-4	-1.311861641E-3	2.164112840E-3
10.06	-3.148238318E-4	-1.291861591E-3	-2.143245243E-4
10.07	-1.180855080E-3	-4.048616375E-4	-5.001057580E-4
10.08	-3.707300794E-4	-1.176924121E-3	-1.385168269E-3
10.09	-2.738550793E-4	-1.242830415E-3	-5.950432591E-4
10.1	-2.738550793E-4	-1.221861616E-3	-5.001057580E-4
10.11	5.931448988E-4	-1.192830407E-3	-1.385168269E-3
10.120000000000001	-1.808550817E-4	-1.162830374E-3	-1.480105770E-3
10.13	-1.131823823E-3	-1.141861650E-3	-5.950432591E-4
10.14	-3.299010519E-4	-3.740517636E-3	-5.001057580E-4
10.15	4.961396900E-4	-2.522305966E-3	-5.001057580E-4
10.16	-8.375095983E-4	-2.788213560E-3	-5.001057580E-4
10.17	-3.061380348E-4	-2.045306534E-3	-5.001057580E-4
10.18	-1.070855081E-3	-1.045830353E-3	1.279050498E-3
10.19	5.882073867E-4	-1.825955379E-3	1.469894248E-3
10.200000000000001	-9.085509487E-5	-1.016799152E-3	5.758005031E-4
10.21	-1.059886347E-3	-9.108929200E-4	1.373987999E-3
10.22	5.982074118E-4	-9.008928528E-4	-1.194324518E-3
10.23	-8.988634200E-5	-8.908928608E-4	-5.950432591E-4
10.24	-1.748238368E-4	-1.389291021E-5	-5.001057580E-4
10.25	6.841136362E-4	8.007583467E-5	3.849567525E-4
10.26	7.671136486E-4	9.561071000E-4	-4.051682569E-4
10.27	-1.098863336E-4	1.041044533E-3	1.279050498E-3
10.28	-2.038550818E-4	1.459820829E-4	-1.194324518E-3
10.290000000000001	6.631449173E-4	5.007583907E-5	-5.950432591E-4
10.3	7.471136405E-4	-8.078928518E-4	-5.001057580E-4
10.31	-1.298863251E-4	-8.908928608E-4	-5.001057580E-4
10.32	-1.090855049E-3	-8.718616431E-4	-5.001057580E-4
10.33	5.772386553E-4	-2.924157811E-6	3.849567525E-4
10.34	-1.098863336E-4	1.833107126E-3	-4.051682569E-4
10.35	-1.948238261E-4	1.125982051E-3	3.849567525E-4
10.36	-1.938550755E-4	1.897075750E-3	4.798942536E-4
10.370000000000001	-1.938550755E-4	2.829982082E-3	-4.051682569E-4
10.38	-1.938550755E-4	2.892981969E-3	3.849567525E-4
10.39	-1.938550755E-4	4.596982085E-3	4.798942536E-4
10.4	-1.848238409E-4	4.716857038E-3	-4.051682569E-4
10.41	-1.748238368E-4	2.903825821E-3	3.939878189E-4
10.42	-1.738550862E-4	1.806950846E-3	-4.041995266E-4
10.43	-1.031823809E-3	1.673950741E-3	-1.385168269E-3
10.44	-2.297613315E-4	-8.198667474E-5	2.990503178E-4
10.450000000000001	-1.248238286E-4	5.880445789E-4	-1.289262037E-3
10.46	-1.238550780E-4	-1.071986639E-3	2.990503178E-4
10.47	-1.328863337E-4	-1.241861667E-3	1.374956729E-3
10.48	-1.338550843E-4	-1.230892851E-3	5.848315695E-4
10.49	-1.338550843E-4	-3.448616463E-4	4.898940504E-4
10.5	-1.338550843E-4	6.170758262E-4	4.898940504E-4
10.51	7.241136591E-4	7.010445892E-4	-4.041995266E-4
10.52	-5.988632537E-5	2.443107032E-3	3.939878189E-4
10.53	-1.448238285E-4	4.336981817E-3	-4.041995266E-4
10.540000000000001	-1.348238338E-4	4.447825668E-3	-4.910745234E-4
10.55	-1.338550843E-4	3.509856997E-3	-4.901057750E-4
10.56	-1.338550843E-4	4.231919622E-3	-4.901057750E-4
10.57	-1.248238286E-4	2.513825757E-3	-4.901057750E-4
10.58	-1.148238329E-4	1.416950763E-3	3.949565673E-4
10.59	7.531448632E-4	4.259820834E-4	4.898940504E-4
10.6	8.371136228E-4	-1.412955371E-3	-3.951682919E-4
10.61	8.271136398E-4	-7.058303719E-4	1.280019246E-3
10.620000000000001	8.171136568E-4	-1.476924080E-3	5.848315695E-4
10.63	-5.085508020E-5	-1.542830371E-3	4.898940504E-4
10.64	-1.438550790E-4	-1.521861657E-3	-3.951682919E-4
10.65	-9.270091107E-4	-1.495702867E-3	-4.901057750E-4
10.66	6.129202777E-4	-1.463221451E-3	-1.371295269E-3
10.67	8.080823801E-4	-1.432830381E-3	-5.950432591E-4
10.68	-6.988633392E-5	-1.411861657E-3	-5.001057580E-4
10.69	-1.548238242E-4	-5.067991596E-4	-5.001057580E-4
10.700000000000001	7.131448834E-4	4.570758186E-4	-5.001057580E-4
10.71	7.971136442E-4	-3.169241618E-4	3.939878189E-4
10.72	-7.085508228E-5	-1.276924138E-3	-4.041995266E-4
10.73	-1.548238242E-4	-1.342830347E-3	-1.385168269E-3
10.74	-1.448238285E-4	-1.312830389E-3	-5.950432591E-4
10.75	-1.438550790E-4	-1.291861591E-3	-5.001057580E-4
10.76	-1.438550790E-4	-1.271861616E-3	-5.001057580E-4
10.77	-1.438550790E-4	-1.260892884E-3	-5.001057580E-4
10.78	7.231449096E-4	-2.108861539E-3	-5.001057580E-4
10.790000000000001	-5.085508020E-5	-3.039830366E-3	-5.001057580E-4
10.8	-1.438550790E-4	-3.066705315E-3	-1.385168269E-3
10.81	7.231449096E-4	-3.014767885E-3	-5.950432591E-4
10.82	7.980823970E-4	-1.221736653E-3	-5.001057580E-4
10.83	7.961448958E-4	-1.011861601E-3	-5.001057580E-4
10.84	7.780823844E-4	-1.000892860E-3	-5.001057580E-4
10.85	7.671136486E-4	-9.908928772E-4	-5.001057580E-4
10.86	-1.008550779E-4	-9.718616595E-4	-5.001057580E-4
10.870000000000001	-1.938550755E-4	-9.608929282E-4	3.849567525E-4
10.88	6.731449026E-4	-9.508928610E-4	4.798942536E-4
10.89	-1.098863336E-4	-9.408928690E-4	-4.051682569E-4
10.9	1.539176109E-3	-9.308928860E-4	3.849567525E-4
10.91	8.320511496E-4	-9.208929030E-4	4.798942536E-4
10.92	-1.308550735E-4	-1.768861558E-3	-1.290230767E-3
10.93	6.431449070E-4	-2.681767916E-3	-1.480105770E-3
10.94	-1.308550735E-4	-2.724767837E-3	-1.480105770E-3
10.950000000000001	6.431449070E-4	-1.825830332E-3	1.175081594E-3
10.96	-1.308550735E-4	-8.358303794E-4	1.459894079E-3
10.97	-2.238550711E-4	-7.399241344E-4	-3.102307738E-4
10.98	-1.090855049E-3	-7.308928998E-4	3.849567525E-4
10.99	-2.987925784E-4	-7.208928747E-4	-4.051682569E-4
11.0	-1.948238261E-4	-7.018616525E-4	-1.385168269E-3
11.01	6.641136679E-4	1.670758433E-4	-5.950432591E-4
11.02	-1.198863376E-4	1.118044524E-3	-1.385168269E-3
11.03	-2.048238324E-4	2.068044573E-3	2.900192514E-4
11.040000000000001	-2.038550818E-4	2.999982166E-3	-4.051682569E-4
11.05	6.541136406E-4	2.168888308E-3	-5.001057580E-4
11.06	7.371136530E-4	2.999508374E-4	-5.001057580E-4
11.07	-1.308550735E-4	9.770758200E-4	-5.001057580E-4
11.08	-2.238550711E-4	1.759820830E-4	-1.385168269E-3
11.09	-2.238550711E-4	8.007583467E-5	-5.950432591E-4
11.1	6.431449070E-4	7.104458950E-5	-1.385168269E-3
11.11	-1.015917521E-3	-7.969241171E-4	2.900192514E-4
11.120000000000001	-3.097613308E-4	-1.389291021E-5	-4.051682569E-4
11.13	-2.048238324E-4	8.007583467E-5	-5.001057580E-4
11.14	6.631449173E-4	1.832138376E-3	3.849567525E-4
11.15	7.561449172E-4	1.996198053E-3	4.798942536E-4
11.16	-1.052599268E-4	1.963434403E-3	-3.903910583E-4
11.17	6.531448900E-4	3.694075878E-3	3.849567525E-4
11.18	-9.968863032E-4	3.798794607E-3	-1.290230767E-3
11.19	-2.897613228E-4	2.868888236E-3	-5.950432591E-4
11.200000000000001	6.731449026E-4	4.476981934E-3	-5.001057580E-4
11.21	-1.098863336E-4	4.578794400E-3	-5.001057580E-4
11.22	6.631449173E-4	3.630825896E-3	-5.001057580E-4
11.23	7.380824058E-4	1.723825795E-3	-1.385168269E-3
11.24	-1.006886286E-3	1.512013312E-3	-5.950432591E-4
11.25	-3.087925825E-4	-2.510178869E-4	-5.001057580E-4
11.26	-2.048238324E-4	-4.308928972E-4	-5.001057580E-4
11.27	-1.070855081E-3	-4.299241488E-4	-5.001057580E-4
11.28	5.882073867E-4	-4.208928931E-4	-5.001057580E-4
11.290000000000001	-9.988632953E-5	-4.018616522E-4	-5.001057580E-4
11.3	-1.051823777E-3	1.325044568E-3	-1.385168269E-3
11.31	-2.587925743E-4	6.159820701E-4	1.184112997E-3
11.32	-1.548238242E-4	1.387075778E-3	5.848315695E-4
11.33	-1.448238285E-4	2.329013261E-3	-3.951682919E-4
11.34	7.141136329E-4	1.507919545E-3	-1.384199520E-3
11.35	-6.988633392E-5	2.268044605E-3	2.990503178E-4
11.36	-1.638550799E-4	2.314919520E-3	-1.289262037E-3
11.370000000000001	7.031448982E-4	1.406950780E-3	-5.860120245E-4
11.38	7.871136612E-4	4.250133351E-4	3.949565673E-4
11.39	7.771136361E-4	-1.412955371E-3	4.898940504E-4
11.4	-9.988632953E-5	-1.581861648E-3	-4.041995266E-4
11.41	-1.848238409E-4	-1.552830363E-3	-5.001057580E-4
11.42	-1.838550925E-4	-1.531861640E-3	-5.001057580E-4
11.43	-1.050855029E-3	-1.511861589E-3	3.939878189E-4
11.44	-2.587925743E-4	-2.358861656E-3	4.898940504E-4
11.450000000000001	-1.638550799E-4	-1.537767865E-3	-4.041995266E-4
11.46	1.570144813E-3	-1.421861640E-3	-5.001057580E-4
11.47	8.620511407E-4	-1.392830355E-3	-5.001057580E-4
11.48	7.480823888E-4	-1.371861632E-3	-5.001057580E-4
11.49	-9.968863032E-4	-1.351861666E-3	-5.001057580E-4
11.5	-2.987925784E-4	-4.648616587E-4	-5.001057580E-4
11.51	6.721761520E-4	-3.699241576E-4	-5.001057580E-4
11.52	-1.098863336E-4	-1.236924115E-3	-5.001057580E-4
11.53	-1.948238261E-4	-1.311861641E-3	-5.001057580E-4
11.540000000000001	-1.938550755E-4	-1.300892909E-3	3.939878189E-4
11.55	-1.848238409E-4	-1.272830373E-3	-1.289262037E-3
11.56	-1.050855029E-3	-2.109830288E-3	-1.480105770E-3
11.57	-2.587925743E-4	-1.305830368E-3	2.990503178E-4
11.58	-1.638550799E-4	-2.916830254E-3	-1.289262037E-3
11.59	-1.039886293E-3	-2.187767776E-3	2.990503178E-4
11.6	-2.487925702E-4	-2.044767856E-3	-1.289262037E-3
11.61	-1.538550736E-4	-1.994767941E-3	-1.480105770E-3
11.620000000000001	7.131448834E-4	-1.095830370E-3	-5.950432591E-4
11.63	-6.988633392E-5	-9.818616425E-4	-5.001057580E-4
11.64	-1.548238242E-4	-9.618616765E-4	-5.001057580E-4
11.65	-9.246299322E-4	-9.518106986E-4	-1.295220871E-3
11.66	-1.094947340E-3	-9.410164373E-4	2.747073188E-4
11.67	-2.087925766E-4	-9.218616513E-4	-1.289262037E-3
11.68	-1.048238382E-4	-9.018616012E-4	-5.950432591E-4
11.69	7.631449314E-4	-8.908928608E-4	3.939878189E-4
11.700000000000001	-1.988633173E-5	-8.808928778E-4	4.898940504E-4
11.71	-1.048238382E-4	-8.708928948E-4	-4.041995266E-4
11.72	-1.128863339E-4	-8.608929118E-4	-5.001057580E-4
11.73	-9.808550510E-4	-8.418616100E-4	-5.001057580E-4
11.74	6.782074201E-4	-8.218616349E-4	-5.001057580E-4
11.75	1.724113639E-3	-8.018616269E-4	-5.001057580E-4
11.76	5.505116281E-5	-7.818616563E-4	-2.270230779E-3
11.77	-1.248238286E-4	-7.708928829E-4	2.041128167E-4
11.78	-1.148238329E-4	-7.608928954E-4	-1.289262037E-3
11.790000000000001	7.531448632E-4	1.850106959E-3	-1.480105770E-3
11.8	8.371136228E-4	1.217919563E-3	-1.480105770E-3
11.81	8.271136398E-4	2.836013187E-3	-1.480105770E-3
11.82	8.171136568E-4	2.992981968E-3	2.990503178E-4
11.83	7.980823970E-4	2.068888273E-3	-1.289262037E-3
11.84	7.961448958E-4	3.686013224E-3	-5.950432591E-4
11.85	-7.988633796E-5	1.214888270E-3	-5.001057580E-4
11.86	-1.040855043E-3	9.029820721E-4	-1.385168269E-3
11.870000000000001	-1.115792569E-3	2.404459064E-5	-5.950432591E-4
11.88	-2.197613275E-4	-9.369241544E-4	-1.385168269E-3
11.89	-9.908550351E-4	-1.358304089E-4	-1.480105770E-3
11.9	6.591761183E-4	-9.069241165E-4	-1.480105770E-3
11.91	-8.878550567E-4	-1.238929050E-4	-1.480105770E-3
11.92	-1.887925790E-4	1.722138377E-3	2.990503178E-4
11.93	-1.028863381E-4	9.979195823E-4	-1.289262037E-3
11.94	-9.482383303E-5	1.749013315E-3	-1.480105770E-3
11.950000000000001	7.731449167E-4	2.689013217E-3	-5.860120245E-4
11.96	-1.891758337E-5	2.743950768E-3	-4.901057750E-4
11.97	-9.808550510E-4	3.579981944E-3	-4.901057750E-4
11.98	-1.887925790E-4	4.500950619E-3	3.949565673E-4
11.99	-9.385508242E-5	3.659856929E-3	-3.951682919E-4
12.0	-9.385508242E-5	4.381919554E-3	-4.901057750E-4
12.01	-9.385508242E-5	3.521794663E-3	-1.375168286E-3
12.02	-8.482383725E-5	2.507919541E-3	-5.850432761E-4
12.030000000000001	-1.817854970E-3	1.497919562E-3	-1.375168286E-3
12.040000000000001	6.332699362E-4	1.372982028E-3	-1.470105787E-3
12.05	4.914491517E-5	4.759820706E-4	-5.850432761E-4
12.06	8.231449238E-4	3.800758256E-4	-1.375168286E-3
12.07	-8.359175428E-4	-1.362955365E-3	-5.850432761E-4
12.08	7.191761095E-4	-1.531861640E-3	3.949565673E-4
12.09	-8.459175348E-4	-6.358303977E-4	4.898940504E-4
12.1	-1.015792553E-3	3.361070856E-4	4.898940504E-4
12.11	-9.957925870E-4	1.288044598E-3	-1.280230802E-3
12.120000000000001	-1.087925850E-4	4.950133394E-4	-1.470105787E-3
12.13	-1.385508444E-5	2.152138222E-3	3.000190661E-4
12.14	-4.823834015E-6	5.609195797E-4	-1.280230802E-3
12.15	-3.855083969E-6	-3.591905331E-4	3.463289560E-6
12.16	8.397129391E-4	2.524310874E-4	-3.712482062E-4
12.17	9.471136222E-4	-1.372955348E-3	3.949565673E-4
12.18	9.280824045E-4	-1.532830388E-3	-1.280230802E-3
12.19	9.171136732E-4	-1.511861589E-3	-5.850432761E-4
12.200000000000001	9.071136060E-4	-1.491861614E-3	-4.901057750E-4
12.21	8.880823793E-4	-2.329830287E-3	-1.375168286E-3
12.22	-8.568863503E-4	-2.383799089E-3	-5.850432761E-4
12.23	-1.587925879E-4	-1.476799116E-3	-4.901057750E-4
12.24	-5.482383113E-5	-2.237892925E-3	-4.901057750E-4
12.25	-6.288633621E-5	-1.417767882E-3	-1.375168286E-3
12.26	-6.385508682E-5	-1.301861658E-3	-5.850432761E-4
12.27	8.031448703E-4	-1.272830373E-3	-4.901057750E-4
12.280000000000001	2.011366340E-5	-1.251861650E-3	-4.901057750E-4
12.290000000000001	7.931448861E-4	-1.231861599E-3	-4.901057750E-4
12.3	1.011365936E-5	-3.538929019E-4	3.949565673E-4
12.31	7.741136662E-4	-1.126924115E-3	-3.951682919E-4
12.32	8.571136820E-4	-1.201861641E-3	-4.901057750E-4
12.33	-1.085508656E-5	-1.172830357E-3	-1.384199520E-3
12.34	-1.038550887E-4	-1.151861633E-3	-5.860120245E-4
12.35	7.541136127E-4	-1.113799114E-3	-2.269262031E-3
12.36	-2.988633428E-5	-2.825861640E-3	-1.575043271E-3
12.370000000000001	-9.908550351E-4	-2.955736567E-3	-1.480105770E-3
12.38	6.682074371E-4	-2.895736651E-3	-1.480105770E-3
12.39	1.723144891E-3	-2.853799054E-3	-5.950432591E-4
12.4	9.130199062E-4	-1.946799063E-3	-5.001057580E-4
12.41	-5.988632537E-5	-9.467991692E-4	-1.385168269E-3
12.42	-1.448238285E-4	-8.318616270E-4	-1.480105770E-3
12.43	7.231449096E-4	-8.118616519E-4	-1.480105770E-3
12.44	-5.988632537E-5	-7.918616438E-4	-5.950432591E-4
12.450000000000001	-1.538550736E-4	8.610709116E-5	-1.385168269E-3
12.46	-1.448238285E-4	1.710445837E-4	-1.480105770E-3
12.47	-1.019886323E-3	1.700758331E-4	-5.950432591E-4
12.48	6.472386296E-4	-6.878929103E-4	-1.385168269E-3
12.49	1.694113681E-3	-7.708928829E-4	-5.950432591E-4
12.5	2.505117171E-5	-7.608928954E-4	3.849567525E-4
12.51	7.031448982E-4	-7.508929124E-4	-1.290230767E-3
12.52	-7.988633796E-5	-7.408928873E-4	-5.950432591E-4
12.530000000000001	-1.648238305E-4	-7.308928998E-4	-5.001057580E-4
12.540000000000001	-1.638550799E-4	-7.208928747E-4	-5.001057580E-4
12.55	7.031448982E-4	-7.018616525E-4	-5.001057580E-4
12.56	-9.378550604E-4	-6.908928791E-4	-1.385168269E-3
12.57	-2.387925767E-4	1.861070865E-4	-2.365168280E-3
12.58	-1.438550790E-4	1.138044576E-3	-1.575043271E-3
12.59	-1.438550790E-4	1.212013272E-3	-5.950432591E-4
12.6	7.231449096E-4	2.944075848E-3	-5.001057580E-4
12.61	-5.085508020E-5	3.093950919E-3	3.939878189E-4
12.620000000000001	-1.438550790E-4	3.911919457E-3	-4.041995266E-4
12.63	7.321761443E-4	3.954919342E-3	3.939878189E-4
12.64	-4.988633184E-5	3.019857066E-3	-4.041995266E-4
12.65	6.256359321E-4	1.324985026E-3	-1.285627851E-3
12.66	1.651868551E-3	5.878938437E-5	-1.480105770E-3
12.67	1.720019863E-3	-4.089290936E-5	-1.480105770E-3
12.68	-3.591757687E-5	-3.992415939E-5	-5.950432591E-4
12.69	-2.148238365E-4	-3.992415939E-5	-5.001057580E-4
12.700000000000001	-2.138550881E-4	-9.159553511E-4	3.849567525E-4
12.71	-1.080855066E-3	-1.338929031E-4	4.798942536E-4
12.72	5.691761690E-4	8.270757977E-4	-1.290230767E-3
12.73	7.561449172E-4	1.787075750E-3	2.900192514E-4
12.74	-1.198863376E-4	2.729013317E-3	-4.051682569E-4
12.75	-2.048238324E-4	3.650950759E-3	-5.001057580E-4
12.76	6.631449173E-4	4.570950687E-3	3.849567525E-4
12.77	-1.198863376E-4	6.357950487E-3	4.798942536E-4
12.780000000000001	-2.138550881E-4	4.706731971E-3	-4.051682569E-4
12.790000000000001	-2.048238324E-4	3.588888131E-3	3.939878189E-4
12.8	-2.038550818E-4	2.559856934E-3	-1.289262037E-3
12.81	-1.070855081E-3	3.299982029E-3	-5.950432591E-4
12.82	-1.136761293E-3	7.258570641E-4	-1.385168269E-3
12.83	6.182073868E-4	-1.293924139E-3	-1.480105770E-3
12.84	-9.368863120E-4	-1.452830347E-3	-1.480105770E-3
12.85	6.282074119E-4	-1.431861623E-3	-5.950432591E-4
12.86	-5.085508020E-5	-1.393799104E-3	-2.270230779E-3
12.870000000000001	7.321761443E-4	-1.371861632E-3	-6.899807603E-4
12.88	-4.988633184E-5	-1.333799113E-3	-2.270230779E-3
12.89	-1.438550790E-4	-1.302830406E-3	-1.575043271E-3
12.9	-1.348238338E-4	-4.058303948E-4	-1.480105770E-3
12.91	-1.338550843E-4	-3.099241431E-4	-5.950432591E-4
12.92	-1.338550843E-4	-3.099241431E-4	-5.001057580E-4
12.93	-1.338550843E-4	5.570758350E-4	-5.001057580E-4
12.94	-1.338550843E-4	-2.259554011E-4	-5.001057580E-4
12.950000000000001	-1.338550843E-4	5.561070844E-4	3.939878189E-4
12.96	-1.248238286E-4	-1.074892889E-3	-2.174324548E-3
12.97	-1.238550780E-4	-1.241861667E-3	-6.809495256E-4
12.98	7.431448790E-4	-1.230892851E-3	3.949565673E-4
12.99	-3.988633832E-5	-1.211861624E-3	-4.041995266E-4
13.0	-1.000855020E-3	-2.058861615E-3	-1.385168269E-3
13.01	-1.997613314E-4	-2.113799175E-3	-5.860120245E-4
13.02	7.631449314E-4	-2.091861544E-3	-4.991370097E-4
13.030000000000001	-8.868862993E-4	-1.177767899E-3	-4.910745234E-4
13.040000000000001	6.782074201E-4	-1.061861609E-3	-4.991370097E-4
13.05	-8.848231959E-4	-1.041872916E-3	-4.910801644E-4
13.06	-1.798213128E-4	-1.021862879E-3	-4.901057750E-4
13.07	7.902640000E-4	-1.001901043E-3	-4.901057750E-4
13.08	8.771157718E-4	-9.818658901E-4	-1.383989265E-3
13.09	8.580824303E-4	-9.618616765E-4	-1.480105770E-3
13.1	-8.778550647E-4	-9.418616264E-4	-1.480105770E-3
13.11	6.882074031E-4	-9.218616513E-4	-5.950432591E-4
13.120000000000001	8.671136650E-4	-9.108929200E-4	-5.001057580E-4
13.13	-9.886338203E-6	-9.008928528E-4	-5.001057580E-4
13.14	-1.038550887E-4	-8.908928608E-4	-5.001057580E-4
13.15	6.606530580E-4	-1.646468591E-3	-5.001057580E-4
13.16	3.542965023E-6	-1.813280316E-3	-1.370470258E-3
13.17	7.631449314E-4	-1.782830429E-3	-5.950432591E-4
13.18	-1.988633173E-5	-1.743799077E-3	-1.385168269E-3
13.19	-1.048238382E-4	-8.458304045E-4	-5.950432591E-4
13.200000000000001	7.721761661E-4	-7.318616526E-4	-1.385168269E-3
13.21	8.480823632E-4	-7.118616400E-4	-1.480105770E-3
13.22	-2.085508911E-5	-7.099241388E-4	-5.950432591E-4
13.23	-1.048238382E-4	1.570758393E-4	-1.385168269E-3
13.24	7.631449314E-4	2.002138283E-3	2.990503178E-4
13.25	-8.778550647E-4	1.286950798E-3	-1.289262037E-3
13.26	-1.697613298E-4	2.029981969E-3	-1.480105770E-3
13.27	-9.498863468E-4	2.959982048E-3	-5.860120245E-4
13.280000000000001	7.082073691E-4	1.270919551E-3	3.949565673E-4
13.290000000000001	2.011366340E-5	1.062013331E-3	-3.951682919E-4
13.3	7.841136515E-4	1.918044473E-3	-4.991370097E-4
13.31	1.136658375E-7	-6.180178642E-4	-4.910745234E-4
13.32	-9.608550815E-4	-8.908928608E-4	-4.901057750E-4
13.33	-1.687925815E-4	-8.808928778E-4	3.949565673E-4
13.34	-7.385508147E-5	-8.618616601E-4	-3.951682919E-4
13.35	7.931448861E-4	-8.418616100E-4	-1.384199520E-3
13.36	8.680824133E-4	2.707584230E-5	-5.950432591E-4
13.370000000000001	8.571136820E-4	1.854075845E-3	-5.001057580E-4
13.38	8.471136148E-4	2.889013250E-3	-5.001057580E-4
13.39	8.371136228E-4	2.049857056E-3	-1.385168269E-3
13.4	-9.068862744E-4	3.656981855E-3	-5.950432591E-4
13.41	-1.075792544E-3	3.785888175E-3	-4.910745234E-4
13.42	-1.037730025E-3	4.574825680E-3	-1.375168286E-3
13.43	-1.397613297E-4	2.835763251E-3	-1.470105787E-3
13.44	-4.385508587E-5	2.594919585E-3	-1.470105787E-3
13.450000000000001	-9.198863091E-4	1.686950863E-3	-5.850432761E-4
13.46	-1.287925826E-4	6.959820784E-4	-4.901057750E-4
13.47	-3.385508539E-5	5.910445898E-4	-1.375168286E-3
13.48	8.331449085E-4	-2.859553924E-4	-5.850432761E-4
13.49	5.011366352E-5	-3.708929060E-4	-4.901057750E-4
13.5	-4.385508587E-5	4.970758415E-4	-1.375168286E-3
13.51	8.141136050E-4	5.810445647E-4	-1.470105787E-3
13.52	3.011365693E-5	5.620133425E-4	-1.470105787E-3
13.530000000000001	-6.385508682E-5	1.427075803E-3	-5.850432761E-4
13.540000000000001	-6.385508682E-5	2.350950733E-3	-1.375168286E-3
13.55	-9.308550439E-4	3.279982063E-3	-5.850432761E-4
13.56	-1.297613309E-4	3.333950884E-3	3.949565673E-4
13.57	-3.385508539E-5	1.541888316E-3	-3.951682919E-4
13.58	-3.385508539E-5	2.208044530E-3	-4.901057750E-4
13.59	-9.008550898E-4	1.405982032E-3	3.949565673E-4
13.6	-1.087925850E-4	4.159820794E-4	4.898940504E-4
13.61	-1.385508444E-5	3.110445787E-4	-1.280230802E-3
13.620000000000001	-1.385508444E-5	-1.441986576E-3	3.000190661E-4
13.63	-1.385508444E-5	-1.602830362E-3	-3.951682919E-4
13.64	8.531448779E-4	-1.554767860E-3	-1.375168286E-3
13.65	2.311997372E-4	-1.527812440E-3	-1.470105787E-3
13.66	8.047322400E-4	-1.502661872E-3	-6.242561944E-4
13.67	9.181032285E-4	-1.481882438E-3	3.939370239E-4
13.68	8.980823714E-4	-1.452830347E-3	-3.951682919E-4
13.69	8.871136310E-4	-1.431861623E-3	-4.901057750E-4
13.700000000000001	1.011365936E-5	-1.420892892E-3	1.280019246E-3
13.71	7.831449008E-4	-5.258303983E-4	-3.002307728E-4
13.72	1.136658375E-7	-1.287892871E-3	-4.901057750E-4
13.73	-9.608550815E-4	-1.361861649E-3	-4.901057750E-4
13.74	6.891761515E-4	-1.332830364E-3	-1.384199520E-3
13.75	-8.917589848E-6	-1.320892875E-3	1.184112997E-3
13.76	-1.038550887E-4	-1.283799104E-3	-2.079387028E-3
13.77	7.541136127E-4	-1.252830398E-3	-1.575043271E-3
13.780000000000001	-2.988633428E-5	-1.222830365E-3	-1.480105770E-3
13.790000000000001	-1.148238329E-4	-1.210892876E-3	2.990503178E-4
13.8	1.611113670E-3	-2.058861615E-3	-1.289262037E-3
13.81	4.408242093E-5	-2.122830410E-3	-5.950432591E-4
13.82	-1.438550790E-4	-2.092830293E-3	-5.001057580E-4
13.83	-1.348238338E-4	-2.062830326E-3	3.939878189E-4
13.84	-1.248238286E-4	-1.165830420E-3	4.898940504E-4
13.85	-1.238550780E-4	-1.060892860E-3	-4.041995266E-4
13.86	7.431448790E-4	-1.041861634E-3	-1.385168269E-3
13.870000000000001	-3.988633832E-5	-1.030892902E-3	2.990503178E-4
13.88	-1.338550843E-4	-1.020892919E-3	4.898940504E-4
13.89	-1.338550843E-4	-1.010892852E-3	-4.041995266E-4
13.9	-1.248238286E-4	-1.000892860E-3	3.939878189E-4
13.91	7.431448790E-4	-9.818616425E-4	-1.289262037E-3
13.92	1.703144916E-3	-9.708929112E-4	-5.950432591E-4
13.93	2.601992007E-5	-9.518616094E-4	-5.001057580E-4
13.94	-1.548238242E-4	-9.318616343E-4	-5.001057580E-4
13.950000000000001	-1.538550736E-4	-9.208929030E-4	3.939878189E-4
13.96	-1.020855073E-3	-1.786924196E-3	-4.041995266E-4
13.97	-1.095792519E-3	-9.767991363E-4	-1.385168269E-3
13.98	6.672386887E-4	-8.708928948E-4	-5.950432591E-4
13.99	-1.988633173E-5	-8.608929118E-4	3.939878189E-4
14.0	-1.138550834E-4	-8.418616100E-4	4.898940504E-4
14.01	-1.138550834E-4	-8.399241043E-4	1.374956729E-3
14.02	-9.898862856E-4	4.513834316E-5	-3.092620074E-4
14.030000000000001	-1.897613274E-4	1.883107049E-3	-5.001057580E-4
14.040000000000001	-9.385508242E-5	2.900950730E-3	-1.385168269E-3
14.05	-8.482383725E-5	2.953950784E-3	-5.860120245E-4
14.06	7.831449008E-4	2.886856980E-3	-1.384199520E-3
14.07	-8.759175679E-4	2.843950785E-3	-5.860120245E-4
14.08	6.791761684E-4	1.927919577E-3	-4.901057750E-4
14.09	-9.886338203E-6	5.995084103E-5	-4.901057750E-4
14.1	7.631449314E-4	7.461070865E-4	3.949565673E-4
14.11	8.471136148E-4	-3.595540845E-5	-4.041995266E-4
14.120000000000001	-8.968862913E-4	-1.005955381E-3	-4.910745234E-4
14.13	6.591761183E-4	-1.081861659E-3	-1.384199520E-3
14.14	-2.988633428E-5	-1.070892928E-3	2.990503178E-4
14.15	6.298854274E-4	-1.054055911E-3	-2.955827707E-4
14.16	8.172691133E-4	6.719797339E-4	-5.001057580E-4
14.17	-5.988632537E-5	1.757075801E-3	3.939878189E-4
14.18	7.041136488E-4	3.584075879E-3	4.898940504E-4
14.19	-7.085508228E-5	3.724919546E-3	4.898940504E-4
14.200000000000001	-1.021823823E-3	3.665888378E-3	-4.041995266E-4
14.21	6.382073949E-4	4.490950823E-3	3.939878189E-4
14.22	-9.259175761E-4	3.649857132E-3	-3.951682919E-4
14.23	-2.287925832E-4	3.504919547E-3	3.949565673E-4
14.24	-1.248238286E-4	2.578888338E-3	-3.951682919E-4
14.25	-9.998862698E-4	7.009195882E-4	-4.901057750E-4
14.26	-1.997613314E-4	5.010445609E-4	-4.901057750E-4
14.27	7.541136127E-4	4.910445734E-4	-1.384199520E-3
14.280000000000001	8.371136228E-4	-3.769241320E-4	2.990503178E-4
14.290000000000001	8.180824051E-4	-1.327892892E-3	-1.289262037E-3
14.3	-1.793886282E-3	-5.258303983E-4	-5.860120245E-4
14.31	-3.037300777E-4	4.370758083E-4	1.280019246E-3
14.32	-1.138550834E-4	1.397075761E-3	5.848315695E-4
14.33	-1.048238382E-4	1.472013287E-3	-3.951682919E-4
14.34	7.541136127E-4	1.442982086E-3	-4.901057750E-4
14.35	8.371136228E-4	5.459820959E-4	-4.901057750E-4
14.36	-3.988633832E-5	2.184075845E-3	-4.901057750E-4
14.370000000000001	7.331448938E-4	1.466950781E-3	3.949565673E-4
14.38	-5.891757702E-5	-3.819866518E-4	-3.951682919E-4
14.39	7.131448834E-4	-5.518616324E-4	-1.384199520E-3
14.4	7.971136442E-4	-1.407892854E-3	-1.480105770E-3
14.41	7.780823844E-4	-6.058303976E-4	-1.480105770E-3
14.42	-9.578550309E-4	-1.358861598E-3	-1.480105770E-3
14.43	-2.678238300E-4	-1.431861623E-3	2.990503178E-4
14.44	-1.648238305E-4	-1.420892892E-3	-4.041995266E-4
14.450000000000001	7.031448982E-4	-1.392830355E-3	-5.001057580E-4
14.46	-7.988633796E-5	-1.371861632E-3	-5.001057580E-4
14.47	-1.738550862E-4	-1.351861666E-3	-5.001057580E-4
14.48	6.841136362E-4	-1.331861616E-3	-1.385168269E-3
14.49	7.671136486E-4	-1.302830406E-3	-1.480105770E-3
14.5	7.571136656E-4	-1.281861608E-3	-5.950432591E-4
14.51	7.471136405E-4	-1.261861633E-3	-5.001057580E-4
14.52	7.371136530E-4	-1.241861667E-3	-1.385168269E-3
14.530000000000001	7.271136279E-4	-1.230892851E-3	-5.950432591E-4
14.540000000000001	-1.498863377E-4	-1.211861624E-3	-5.001057580E-4
14.55	-2.438550837E-4	-1.191861658E-3	3.849567525E-4
14.56	6.321761290E-4	-1.171861608E-3	4.798942536E-4
14.57	-1.498863377E-4	-1.160892868E-3	-4.051682569E-4
14.58	-2.348238280E-4	-2.017892926E-3	-5.001057580E-4
14.59	6.331448796E-4	-2.064767841E-3	-1.385168269E-3
14.6	-1.498863377E-4	-2.908861653E-3	2.900192514E-4
14.61	-2.438550837E-4	-2.963799053E-3	-4.051682569E-4
14.620000000000001	-2.438550837E-4	-2.056799062E-3	3.849567525E-4
14.63	-2.348238280E-4	-2.799830402E-3	-4.051682569E-4
14.64	6.241136450E-4	-1.977767946E-3	-5.001057580E-4
14.65	-6.208790739E-5	-1.077371534E-3	2.943402542E-4
14.66	-2.349485525E-4	-8.721110916E-4	-1.265784779E-3
14.67	-2.338550774E-4	-8.608929118E-4	2.900192514E-4
14.68	-2.248238217E-4	-8.418616100E-4	4.798942536E-4
14.69	-2.238550711E-4	2.707584230E-5	4.798942536E-4
14.700000000000001	6.431449070E-4	1.200758366E-4	4.798942536E-4
14.71	1.603144904E-3	-7.378928753E-4	-4.051682569E-4
14.72	8.110823931E-4	-8.208928866E-4	-5.001057580E-4
14.73	-1.598863418E-4	-8.108929036E-4	-5.001057580E-4
14.74	6.131449091E-4	-8.008928785E-4	-5.001057580E-4
14.75	-1.608550901E-4	-7.818616563E-4	-5.001057580E-4
14.76	-1.120855089E-3	-7.708928829E-4	-5.001057580E-4
14.77	-3.287925786E-4	-7.608928954E-4	-5.001057580E-4
14.780000000000001	-1.100855035E-3	-7.508929124E-4	3.849567525E-4
14.790000000000001	-2.997613268E-4	9.840758342E-4	-1.290230767E-3
14.8	6.631449173E-4	1.152013281E-3	-5.950432591E-4
14.81	7.471136405E-4	2.008044497E-3	3.849567525E-4
14.82	7.371136530E-4	2.939982082E-3	-4.051682569E-4
14.83	1.594113669E-3	2.966857030E-3	-1.385168269E-3
14.84	-7.494882365E-5	2.047919559E-3	-5.950432591E-4
14.85	6.031448840E-4	2.789981982E-3	-5.001057580E-4
14.86	-1.618238430E-4	2.816857081E-3	-1.385168269E-3
14.870000000000001	6.131449091E-4	1.030919586E-3	2.900192514E-4
14.88	-1.698863248E-4	8.310446012E-4	4.798942536E-4
14.89	-2.638550730E-4	-4.051421406E-5	-3.996709742E-4
14.9	-1.130270167E-3	-1.006339225E-3	-5.001057580E-4
14.91	-3.297613269E-4	-2.148616545E-4	-5.001057580E-4
14.92	-2.248238217E-4	-1.199241574E-4	-5.001057580E-4
14.93	-2.148238365E-4	-1.199241574E-4	3.849567525E-4
14.94	-2.048238324E-4	-9.778929271E-4	-4.051682569E-4
14.950000000000001	6.631449173E-4	1.549138330E-3	-5.001057580E-4
14.96	7.471136405E-4	2.669981999E-3	-5.001057580E-4
14.97	-1.298863251E-4	2.732982037E-3	3.849567525E-4
14.98	-1.966886325E-3	3.560950726E-3	-4.051682569E-4
14.99	-3.746988409E-4	3.595888311E-3	-5.001057580E-4
15.0	-1.928863272E-4	4.420950755E-3	3.939878189E-4
15.01	-1.848238409E-4	3.570825662E-3	-4.041995266E-4
15.02	-1.838550925E-4	2.548888203E-3	3.939878189E-4
15.030000000000001	-1.748238368E-4	1.537919578E-3	-4.041995266E-4
15.040000000000001	-1.738550862E-4	1.422013288E-3	-5.001057580E-4
15.05	-1.738550862E-4	5.259820788E-4	-5.001057580E-4
15.06	-1.648238305E-4	-4.459554000E-4	-4.910745234E-4
15.07	-1.039886293E-3	-1.397892871E-3	-4.901057750E-4
15.08	6.091761522E-4	-1.471861648E-3	-4.991370097E-4
15.09	7.871136612E-4	-1.451861598E-3	3.939878189E-4
15.1	-8.988634200E-5	-1.422830389E-3	-1.289262037E-3
15.11	-1.748238368E-4	-5.258303983E-4	-5.950432591E-4
15.120000000000001	6.931449129E-4	-1.305955341E-3	3.939878189E-4
15.13	7.680824014E-4	-5.148616369E-4	-4.041995266E-4
15.14	-1.189175893E-4	4.561070702E-4	-5.001057580E-4
15.15	-2.057405249E-4	-2.370362868E-4	-5.001057580E-4
15.16	-1.949472024E-4	-1.275080007E-3	1.254745389E-3
15.17	6.731449026E-4	-4.858303941E-4	-3.092620074E-4
15.18	-1.008550779E-4	-1.265955402E-3	3.939878189E-4
15.19	6.731449026E-4	-1.341861599E-3	4.898940504E-4
15.200000000000001	-1.098863336E-4	-1.321861624E-3	-4.041995266E-4
15.21	-2.038550818E-4	-1.301861658E-3	-5.001057580E-4
15.22	6.541136406E-4	-1.281861608E-3	-5.001057580E-4
15.23	-1.208550905E-4	-1.252830398E-3	-1.385168269E-3
15.24	-2.138550881E-4	-1.213799130E-3	-1.480105770E-3
15.25	-2.048238324E-4	-2.067892850E-3	-5.950432591E-4
15.26	6.631449173E-4	-2.123799158E-3	-5.001057580E-4
15.27	1.614113640E-3	-1.216799101E-3	-5.001057580E-4
15.280000000000001	-4.591758091E-5	-1.101861625E-3	-1.385168269E-3
15.290000000000001	6.331448796E-4	-1.090892894E-3	2.900192514E-4
15.3	-1.498863377E-4	-1.080892911E-3	-4.051682569E-4
15.31	6.231448944E-4	-1.061861609E-3	3.849567525E-4
15.32	-1.035917576E-3	-1.050892868E-3	-4.051682569E-4
15.33	5.282073955E-4	-1.031861651E-3	-5.001057580E-4
15.34	-1.508550861E-4	-1.011861601E-3	-5.001057580E-4
15.35	-2.348238280E-4	-1.867892817E-3	-5.001057580E-4
15.36	-1.100855035E-3	-1.932830360E-3	-5.001057580E-4
15.370000000000001	1.434238629E-3	-2.769830284E-3	-5.001057580E-4
15.38	8.039886552E-4	-1.947767811E-3	-5.001057580E-4
15.39	-1.608550901E-4	-2.707892871E-3	3.849567525E-4
15.4	-1.120855089E-3	-1.887767913E-3	4.798942536E-4
15.41	5.291761439E-4	-2.629830336E-3	-4.051682569E-4
15.42	6.980823806E-4	-9.407679056E-4	-5.001057580E-4
15.43	-1.708550776E-4	-7.408928873E-4	-5.001057580E-4
15.44	6.031448840E-4	-7.308928998E-4	-5.001057580E-4
15.450000000000001	-1.046886311E-3	1.461070824E-4	3.849567525E-4
15.46	-3.397613310E-4	2.310445749E-4	-1.290230767E-3
15.47	-1.101823785E-3	2.210445897E-4	-1.480105770E-3
15.48	-2.997613268E-4	2.200758413E-4	-5.950432591E-4
15.49	-2.038550818E-4	1.087075819E-3	-5.001057580E-4
15.5	1.521113640E-3	1.162013348E-3	-1.385168269E-3
15.51	-4.591758091E-5	2.659820849E-4	-5.950432591E-4
15.52	-1.109886269E-3	1.700758331E-4	3.849567525E-4
15.530000000000001	-1.185792544E-3	-7.059553796E-4	4.798942536E-4
15.540000000000001	5.772386553E-4	-7.908928910E-4	1.373987999E-3
15.55	7.390511542E-4	-7.899241426E-4	-3.092620074E-4
15.56	7.271136279E-4	8.610709116E-5	-1.385168269E-3
15.57	-1.025917593E-3	-6.869241597E-4	-5.950432591E-4
15.58	-1.186761301E-3	9.631070312E-4	-5.001057580E-4
15.59	-2.897613228E-4	2.559820718E-4	-5.001057580E-4
15.6	6.641136679E-4	1.894075783E-3	-1.385168269E-3
15.610000000000001	7.471136405E-4	2.052982074E-3	-5.950432591E-4
15.620000000000001	-1.298863251E-4	2.880950764E-3	-5.001057580E-4
15.63	1.510144906E-3	2.924919583E-3	-5.001057580E-4
15.64	8.020511585E-4	3.750950608E-3	-5.001057580E-4
15.65	6.902242276E-4	3.012200891E-3	-1.280218665E-3
15.66	-1.752795262E-4	2.755672448E-3	-6.098006564E-4
15.67	-2.838550856E-4	1.837919543E-3	-5.001057580E-4
15.68	5.831449135E-4	1.712982093E-3	-5.001057580E-4
15.69	-1.998863204E-4	1.682981976E-3	-5.001057580E-4
15.700000000000001	-2.848238340E-4	7.859820517E-4	3.849567525E-4
15.71	-2.748238299E-4	6.810445766E-4	-1.290230767E-3
15.72	-2.738550793E-4	6.620133169E-4	-5.950432591E-4
15.73	5.931448988E-4	6.600758157E-4	-5.001057580E-4
15.74	6.771136618E-4	1.527075815E-3	-5.001057580E-4
15.75	6.671136367E-4	2.469013218E-3	-5.001057580E-4
15.76	6.571136492E-4	2.523950769E-3	3.849567525E-4
15.77	6.471136662E-4	2.483950837E-3	-4.051682569E-4
15.780000000000001	6.371136411E-4	3.319982013E-3	-5.001057580E-4
15.790000000000001	-1.115917537E-3	2.497919540E-3	3.849567525E-4
15.8	-4.097613262E-4	2.363950855E-3	-4.051682569E-4
15.81	-3.048238255E-4	2.314919520E-3	-1.385168269E-3
15.82	-2.028823733E-3	1.397919546E-3	-1.480105770E-3
15.83	-4.437300787E-4	4.059820754E-4	2.990503178E-4
15.84	-2.357925787E-4	3.010445724E-4	-2.174324548E-3
15.85	6.331448796E-4	-1.442955327E-3	-6.899807603E-4
15.860000000000001	1.593144916E-3	-1.611861597E-3	3.849567525E-4
15.870000000000001	7.920511334E-4	-1.582830396E-3	-1.290230767E-3
15.88	-1.798863333E-4	-1.552830363E-3	-5.950432591E-4
15.89	6.021761334E-4	-1.522830405E-3	-1.385168269E-3
15.9	-1.046886311E-3	-1.501861606E-3	-5.950432591E-4
15.91	-3.397613310E-4	-1.472830397E-3	-5.001057580E-4
15.92	-1.110855020E-3	-1.451861598E-3	-5.001057580E-4
15.93	5.572386473E-4	-1.431861623E-3	-5.001057580E-4
15.94	-1.208550905E-4	-1.411861657E-3	-5.001057580E-4
15.950000000000001	-2.228863228E-4	-5.158303942E-4	-1.385168269E-3
15.96	-2.057925808E-4	-4.018616522E-4	-1.480105770E-3
15.97	6.721761520E-4	-3.908928975E-4	-5.950432591E-4
15.98	7.480823888E-4	-1.256924167E-3	-1.385168269E-3
15.99	1.622176121E-3	-1.331861616E-3	2.900192514E-4
16.0	8.130198899E-4	-1.311861641E-3	-4.051682569E-4
16.01	-1.508550861E-4	-1.291861591E-3	-1.385168269E-3
16.02	-1.119886339E-3	-2.138861657E-3	-5.950432591E-4
16.03	5.382073785E-4	-3.051767864E-3	-1.385168269E-3
16.04	-1.408550820E-4	-2.227767894E-3	-5.950432591E-4
16.05	-2.428863331E-4	-2.093799041E-3	3.849567525E-4
16.06	-1.119886339E-3	-1.204861603E-3	4.798942536E-4
16.07	-3.197613229E-4	-1.091861642E-3	-4.051682569E-4
16.080000000000002	1.510144906E-3	-1.080892911E-3	-5.001057580E-4
16.09	-5.591758495E-5	-1.070892928E-3	-5.001057580E-4
16.1	6.321761290E-4	-1.051861626E-3	3.849567525E-4
16.11	7.171136404E-4	-1.040892885E-3	4.798942536E-4
16.12	-1.508550861E-4	-1.021861668E-3	-4.051682569E-4
16.13	-2.348238280E-4	-1.010892852E-3	-5.001057580E-4
16.14	-2.338550774E-4	-9.918644483E-4	-1.385029955E-3
16.15	-2.338550774E-4	-9.748825102E-4	-1.480105770E-3
16.16	6.097812372E-4	-9.523483534E-4	-6.188936456E-4
16.17	-1.498863377E-4	-9.408928690E-4	-5.001057580E-4
16.18	-2.438550837E-4	-9.218616513E-4	-5.001057580E-4
16.19	-2.348238280E-4	-1.768861558E-3	-1.385168269E-3
16.2	-2.338550774E-4	-9.658303869E-4	-5.950432591E-4
16.21	-2.338550774E-4	-8.518616771E-4	-5.001057580E-4
16.22	6.421761564E-4	-8.408928616E-4	-5.001057580E-4
16.23	-1.006886286E-3	-8.308928696E-4	-5.001057580E-4
16.240000000000002	-1.175792561E-3	9.131070276E-4	3.849567525E-4
16.25	-2.022792468E-3	1.091044532E-3	-4.051682569E-4
16.26	-3.437300623E-4	1.959820806E-4	-5.001057580E-4
16.27	7.041136488E-4	1.834075876E-3	-1.385168269E-3
16.28	-9.468862950E-4	1.992982008E-3	-5.950432591E-4
16.29	-2.487925702E-4	1.962982041E-3	-5.001057580E-4
16.3	-1.448238285E-4	1.065982051E-3	-5.001057580E-4
16.31	-1.438550790E-4	9.404458589E-5	3.939878189E-4
16.32	7.141136329E-4	-8.955410826E-6	-1.289262037E-3
16.330000000000002	7.971136442E-4	-9.924160872E-6	-1.480105770E-3
16.34	7.780823844E-4	-8.678929280E-4	-5.950432591E-4
16.35	-8.182383918E-5	-8.389291448E-5	-5.001057580E-4
16.36	6.841136362E-4	-8.478928747E-4	-1.385168269E-3
16.37	-9.759175843E-4	-6.389290789E-5	-5.950432591E-4
16.38	-1.145792527E-3	3.007583812E-5	-5.001057580E-4
16.39	-1.125792552E-3	9.061070929E-4	-5.001057580E-4
16.4	-2.297613315E-4	2.716013204E-3	-1.385168269E-3
16.41	-1.000855020E-3	3.730950624E-3	-5.950432591E-4
16.42	1.525207411E-3	3.738794336E-3	-1.385168269E-3
16.43	-8.309800750E-4	3.675888175E-3	-5.950432591E-4
16.44	6.291761602E-4	3.588794405E-3	-1.385168269E-3
16.45	7.980823970E-4	2.649856968E-3	-1.480105770E-3
16.46	-7.085508228E-5	1.628888276E-3	-1.480105770E-3
16.47	7.031448982E-4	6.450133129E-4	2.990503178E-4
16.48	7.871136612E-4	1.408044581E-3	-4.041995266E-4
16.490000000000002	7.680824014E-4	1.463950810E-3	-1.385168269E-3
16.5	7.571136656E-4	5.659820619E-4	-1.480105770E-3
16.51	-1.198863376E-4	-4.059554213E-4	-5.950432591E-4
16.52	6.531448900E-4	1.243107021E-3	-1.385168269E-3
16.53	7.280823763E-4	5.359820618E-4	-1.480105770E-3
16.54	7.171136404E-4	4.400758168E-4	2.900192514E-4
16.55	7.071136574E-4	4.310445822E-4	-4.051682569E-4
16.56	6.971136323E-4	1.297075833E-3	-5.001057580E-4
16.57	-1.708550776E-4	5.050133224E-4	-5.001057580E-4
16.580000000000002	-2.638550730E-4	1.277075778E-3	3.849567525E-4
16.59	-2.638550730E-4	1.361044539E-3	4.798942536E-4
16.6	-1.121823838E-3	-3.919866348E-4	-1.290230767E-3
16.61	-3.197613229E-4	2.870758302E-4	2.990503178E-4
16.62	-1.090855049E-3	-4.869241314E-4	-4.041995266E-4
16.63	5.682074207E-4	-1.446924126E-3	3.939878189E-4
16.64	7.471136405E-4	-1.521861657E-3	4.898940504E-4
16.65	-3.285267106E-5	-1.511809540E-3	-3.134470468E-4
16.66	6.323929179E-4	-1.483200508E-3	-5.001057580E-4
16.67	-1.308550735E-4	-1.461861665E-3	-5.001057580E-4
16.68	6.431449070E-4	-1.441861615E-3	-5.001057580E-4
16.69	-1.398863292E-4	-1.421861640E-3	3.849567525E-4
16.7	-1.100855035E-3	-1.401861590E-3	4.889253200E-4
16.71	-2.997613268E-4	-1.381861615E-3	-1.289262037E-3
16.72	-1.948238261E-4	-4.858303941E-4	1.184112997E-3
16.73	-1.938550755E-4	-1.265955402E-3	5.848315695E-4
16.740000000000002	6.731449026E-4	-4.658304071E-4	-4.041995266E-4
16.75	-1.008550779E-4	-1.245955349E-3	3.939878189E-4
16.76	1.540144860E-3	-1.321861624E-3	-4.041995266E-4
16.77	8.320511496E-4	-1.301861658E-3	3.849567525E-4
16.78	-1.398863292E-4	-1.281861608E-3	4.798942536E-4
16.79	-2.248238217E-4	-1.270892867E-3	1.373987999E-3
16.8	6.341136302E-4	-1.251861650E-3	-3.092620074E-4
16.81	-1.498863377E-4	-2.107892791E-3	1.279050498E-3
16.82	-2.348238280E-4	-2.163799091E-3	-3.092620074E-4
16.830000000000002	-2.338550774E-4	-2.141861628E-3	3.849567525E-4
16.84	-2.338550774E-4	-2.103799192E-3	4.798942536E-4
16.85	6.331448796E-4	-2.081861561E-3	4.798942536E-4
16.86	7.351761517E-4	-1.185830386E-3	1.373987999E-3
16.87	-1.489175849E-4	-1.080892911E-3	1.460862845E-3
16.88	-2.438550837E-4	-1.070892928E-3	5.748317367E-4
16.89	-2.348238280E-4	-1.060892860E-3	4.798942536E-4
16.9	6.331448796E-4	-1.041861634E-3	4.798942536E-4
16.91	-1.589175934E-4	-1.548616568E-4	-4.051682569E-4
16.92	6.312073784E-4	-9.359554045E-4	1.270019095E-3
16.93	-1.498863377E-4	-1.448616586E-4	5.748317367E-4
16.94	-2.438550837E-4	-9.259554199E-4	1.364956596E-3
16.95	6.231448944E-4	-1.010892852E-3	1.459894079E-3
16.96	-1.598863418E-4	-9.918616255E-4	1.459894079E-3
16.97	-2.538550900E-4	-9.808928942E-4	1.459894079E-3
16.98	-2.448238343E-4	-9.708929112E-4	5.748317367E-4
16.990000000000002	6.141136597E-4	-9.608929282E-4	4.798942536E-4
17.0	-1.698863248E-4	-9.508928610E-4	4.798942536E-4
17.01	-2.638550730E-4	-9.408928690E-4	1.364956596E-3
17.02	-2.548238384E-4	-9.308928860E-4	5.748317367E-4
17.03	6.131449091E-4	8.221383299E-4	4.798942536E-4
17.04	-1.698863248E-4	1.250133370E-4	2.259050341E-3
17.05	-1.148917541E-3	2.658169560E-3	2.449894074E-3
17.06	-1.216761334E-3	2.903950701E-3	6.707379862E-4
17.07	-3.287925786E-4	2.863950751E-3	1.373987999E-3
17.080000000000002	6.241136450E-4	1.956950777E-3	5.758005031E-4
17.09	-1.598863418E-4	1.832982076E-3	4.798942536E-4
17.1	-2.538550900E-4	1.812013361E-3	1.364956596E-3
17.11	6.221761438E-4	3.995084346E-5	1.459894079E-3
17.12	7.071136574E-4	7.170757983E-4	5.748317367E-4
17.13	6.971136323E-4	8.010445590E-4	4.798942536E-4
17.14	-1.055917546E-3	-9.429554222E-4	4.798942536E-4
17.150000000000002	-5.244748250E-4	-4.105439231E-4	1.199274364E-3
17.16	-2.553970247E-4	6.620498219E-4	6.310040804E-4
17.17	6.106837975E-4	2.557164765E-3	1.362444212E-3
17.18	7.151761437E-4	2.713950819E-3	5.748317367E-4
17.19	6.980823806E-4	2.655888250E-3	-1.290230767E-3
17.2	-1.798863333E-4	2.613950803E-3	1.175081594E-3
17.21	6.021761334E-4	3.468044448E-3	1.459894079E-3
17.22	-1.708550776E-4	3.514919344E-3	5.748317367E-4
17.23	-2.548238384E-4	2.597919538E-3	4.798942536E-4
17.240000000000002	-1.129886324E-3	2.472982106E-3	2.259050341E-3
17.25	-3.478238383E-4	2.442981989E-3	6.707379862E-4
17.26	-2.448238343E-4	2.394919552E-3	-4.051682569E-4
17.27	-2.438550837E-4	6.109195969E-4	1.279050498E-3
17.28	-2.438550837E-4	-4.378929136E-4	5.758005031E-4
17.29	-2.438550837E-4	3.461070686E-4	4.798942536E-4
17.3	6.231448944E-4	-1.311986609E-3	1.373987999E-3
17.31	-1.598863418E-4	-1.472830397E-3	5.758005031E-4
17.32	-1.120855089E-3	-1.451861598E-3	4.798942536E-4
17.330000000000002	5.472386552E-4	-5.648616240E-4	4.798942536E-4
17.34	-1.398863292E-4	-4.608928928E-4	4.798942536E-4
17.35	6.421761564E-4	-4.599241444E-4	2.259050341E-3
17.36	7.180823932E-4	-4.508929098E-4	1.564831731E-3
17.37	-1.508550861E-4	-1.325955395E-3	1.469894248E-3
17.38	6.231448944E-4	-5.258303983E-4	5.758005031E-4
17.39	-1.026886341E-3	-4.208928931E-4	4.798942536E-4
17.400000000000002	-3.197613229E-4	-4.199241425E-4	4.798942536E-4
17.41	6.431449070E-4	4.561070702E-4	1.373987999E-3
17.42	-1.006886286E-3	-1.201986609E-3	5.848315695E-4
17.43	5.491761610E-4	-1.371861632E-3	4.808629839E-4
17.44	-1.308550735E-4	-1.351861666E-3	4.798942536E-4
17.45	-2.238550711E-4	-1.331861616E-3	1.373987999E-3
17.46	-1.090855049E-3	-1.320892875E-3	1.469894248E-3
17.47	5.772386553E-4	-1.310892892E-3	1.469894248E-3
17.48	7.571136656E-4	-1.282830356E-3	1.469894248E-3
17.490000000000002	7.561449172E-4	-1.270892867E-3	1.469894248E-3
17.5	-1.289175723E-4	-1.260892884E-3	1.469894248E-3
17.51	-2.148238365E-4	-1.250892901E-3	1.469894248E-3
17.52	6.441136553E-4	-1.222830365E-3	1.469894248E-3
17.53	-1.308550735E-4	-1.210892876E-3	1.469894248E-3
17.54	6.431449070E-4	-1.200892893E-3	5.758005031E-4
17.55	-1.398863292E-4	-1.181861591E-3	1.373987999E-3
17.56	-2.338550774E-4	-1.161861616E-3	5.758005031E-4
17.57	6.331448796E-4	-1.150892885E-3	4.798942536E-4
17.580000000000002	1.593144916E-3	-1.131861667E-3	1.364956596E-3
17.59	-7.494882365E-5	-1.996924043E-3	1.459894079E-3
17.6	6.031448840E-4	-2.071861560E-3	1.459894079E-3
17.61	1.563144794E-3	-2.033799125E-3	5.748317367E-4
17.62	-1.049488328E-4	-2.011861662E-3	4.798942536E-4
17.63	-2.848238340E-4	-1.973799059E-3	4.798942536E-4
17.64	5.831449135E-4	-1.075830386E-3	2.259050341E-3
17.650000000000002	-1.064625540E-4	-9.637879365E-4	8.604749000E-4
17.66	-2.938550686E-4	-9.510241830E-4	1.352087143E-3
17.67	-2.938550686E-4	-9.499241037E-4	2.353987824E-3
17.68	-2.848238340E-4	8.021383639E-4	6.707379862E-4
17.69	5.831449135E-4	1.050133394E-4	4.798942536E-4
17.7	6.671136367E-4	8.951383582E-4	1.364956596E-3
17.71	-1.076886349E-3	9.810445417E-4	5.748317367E-4
17.72	-3.787925868E-4	-7.810179179E-4	1.364956596E-3
17.73	-2.748238299E-4	-9.389291063E-5	5.748317367E-4
17.740000000000002	-2.738550793E-4	7.583960298E-8	1.364956596E-3
17.75	-2.738550793E-4	-8.669241779E-4	3.239050503E-3
17.76	-2.738550793E-4	-8.389291448E-5	1.650737848E-3
17.77	-2.648238236E-4	-8.659554282E-4	5.748317367E-4
17.78	-1.130855072E-3	-9.508928610E-4	4.798942536E-4
17.79	5.282073955E-4	-9.408928690E-4	2.259050341E-3
17.8	-1.508550861E-4	-9.308928860E-4	1.555800328E-3
17.81	-2.438550837E-4	8.221383299E-4	5.748317367E-4
17.82	1.508207405E-3	2.753107059E-3	2.259050341E-3
17.830000000000002	8.020511585E-4	2.036950828E-3	2.449894074E-3
17.84	7.061449090E-4	1.912982126E-3	6.707379862E-4
17.85	6.971136323E-4	2.768044519E-3	1.364956596E-3
17.86	-1.708550776E-4	3.709013161E-3	1.459894079E-3
17.87	6.031448840E-4	2.878888201E-3	1.459894079E-3
17.88	-1.798863333E-4	1.876950727E-3	1.459894079E-3
17.89	-2.738550793E-4	1.752982025E-3	5.748317367E-4
17.900000000000002	-2.738550793E-4	8.559820350E-4	1.364956596E-3
17.91	-2.648238236E-4	1.627075827E-3	5.748317367E-4
17.92	-2.638550730E-4	8.169508092E-4	1.364956596E-3
17.93	6.031448840E-4	7.110445722E-4	5.748317367E-4
17.94	-1.798863333E-4	7.010445892E-4	4.798942536E-4
17.95	5.931448988E-4	6.910445641E-4	4.798942536E-4
17.96	6.861448964E-4	2.415044575E-3	4.798942536E-4
17.97	-1.898863374E-4	1.696950846E-3	4.798942536E-4
17.98	-1.150855043E-3	3.334075763E-3	2.259050341E-3
17.990000000000002	-1.234823803E-3	3.474919412E-3	6.707379862E-4
18.0	-3.397613310E-4	2.548888203E-3	4.798942536E-4
18.01	-2.438550837E-4	6.799508138E-4	1.373987999E-3
18.02	-2.438550837E-4	2.233107016E-3	1.469894248E-3
18.03	-2.528863394E-4	2.402013290E-3	2.354956591E-3
18.04	-1.120855089E-3	1.487919579E-3	6.797690526E-4
18.05	5.382073785E-4	-3.619866347E-4	4.808629839E-4
18.06	7.261448750E-4	-5.408928966E-4	1.373987999E-3
18.07	7.261448750E-4	-1.415955340E-3	1.469894248E-3
18.080000000000002	7.080824057E-4	-1.482830380E-3	5.758005031E-4
18.09	-1.698863248E-4	-1.461861665E-3	1.373987999E-3
18.1	6.121761607E-4	-1.441861615E-3	1.469894248E-3
18.11	-1.698863248E-4	-1.412830405E-3	1.469894248E-3
18.12	-2.638550730E-4	-1.391861607E-3	2.354956591E-3
18.13	6.031448840E-4	-5.048616539E-4	1.564831731E-3
18.14	6.871136448E-4	-1.276924138E-3	2.354956591E-3
18.150000000000002	6.782884469E-4	-5.999907811E-4	1.672104252E-3
18.16	-1.833645259E-4	-3.810632191E-4	1.459894079E-3
18.17	1.449176080E-3	-1.246924098E-3	1.459894079E-3
18.18	7.510823929E-4	-4.548616457E-4	1.459894079E-3
18.19	-2.198863330E-4	-1.226924129E-3	1.459894079E-3
18.2	1.429176110E-3	-1.310892892E-3	1.459894079E-3
18.21	-1.449488279E-4	-1.291861591E-3	5.748317367E-4
18.22	-3.248238359E-4	-1.271861616E-3	-4.051682569E-4
18.23	5.431448906E-4	-1.251861650E-3	3.849567525E-4
18.240000000000002	6.271136536E-4	-1.240892918E-3	1.364956596E-3
18.25	-2.498863286E-4	-2.097892808E-3	5.748317367E-4
18.26	5.231448802E-4	-2.162830342E-3	4.798942536E-4
18.27	1.483144833E-3	-1.256799117E-3	1.364956596E-3
18.28	-1.759175974E-4	-1.141861650E-3	5.748317367E-4
18.29	-3.638550894E-4	-1.121861600E-3	1.364956596E-3
18.3	-3.457925781E-4	-1.101861625E-3	5.748317367E-4
18.31	5.231448802E-4	-1.090892894E-3	4.798942536E-4
18.32	-2.598863161E-4	-1.080892911E-3	1.364956596E-3
18.330000000000002	-3.538550598E-4	-1.061861609E-3	5.748317367E-4
18.34	-3.357925695E-4	-1.050892868E-3	4.798942536E-4
18.35	-3.338550705E-4	-1.040892885E-3	1.364956596E-3
18.36	-3.338550705E-4	-1.030892902E-3	1.459894079E-3
18.37	5.331449076E-4	-1.020892919E-3	5.748317367E-4
18.38	-1.125917520E-3	-1.001861618E-3	1.364956596E-3
18.39	4.472386479E-4	-9.908928772E-4	1.459894079E-3
18.400000000000002	-2.308550899E-4	-9.808928942E-4	5.748317367E-4
18.41	-3.148238318E-4	-9.708929112E-4	1.364956596E-3
18.42	-3.048238255E-4	-9.518616094E-4	5.748317367E-4
18.43	-3.038550749E-4	-9.408928690E-4	4.798942536E-4
18.44	-2.948238192E-4	-9.218616513E-4	1.364956596E-3
18.45	5.731448884E-4	-5.292416075E-5	5.748317367E-4
18.46	-2.098863289E-4	4.910708902E-5	-4.051682569E-4
18.47	5.631449032E-4	5.007583907E-5	3.849567525E-4
18.48	6.561449008E-4	1.802138254E-3	4.798942536E-4
18.490000000000002	-2.198863330E-4	1.962982041E-3	1.364956596E-3
18.5	5.621761526E-4	1.065982051E-3	2.344956758E-3
18.51	-2.198863330E-4	9.610445666E-4	6.697692559E-4
18.52	5.531449179E-4	7.501333799E-5	4.798942536E-4
18.53	6.461449178E-4	8.561070857E-4	1.364956596E-3
18.54	-2.298863370E-4	6.501333987E-5	-3.102307738E-4
18.55	-3.238550875E-4	8.461071011E-4	1.270019095E-3
18.56	-1.199886300E-3	6.404459151E-5	1.459894079E-3
18.57	-1.275792577E-3	-2.992415964E-5	1.459894079E-3
18.580000000000002	-3.797613351E-4	-2.992415964E-5	1.459894079E-3
18.59	5.831449135E-4	8.370757823E-4	-3.102307738E-4
18.6	1.534113594E-3	9.120133068E-4	3.849567525E-4
18.61	1.608082367E-3	1.777075767E-3	1.364956596E-3
18.62	7.120511251E-4	2.719013334E-3	5.748317367E-4
18.63	-2.508550814E-4	2.764919501E-3	-4.051682569E-4
18.64	5.231448802E-4	3.599981910E-3	1.270019095E-3
18.650000000000002	-9.580793682E-4	2.862390770E-3	1.459894079E-3
18.66	-2.161195215E-3	3.489600200E-3	-2.860490437E-4
18.67	-1.360730095E-3	2.659856969E-3	-5.001057580E-4
18.68	-3.787925868E-4	3.409013280E-3	1.270019095E-3
18.69	5.921761482E-4	1.711888297E-3	5.748317367E-4
18.7	1.544113577E-3	-2.319866482E-4	4.798942536E-4
18.71	-1.249488409E-4	1.323107069E-3	1.364956596E-3
18.72	5.621761526E-4	-2.510178869E-4	1.459894079E-3
18.73	-2.198863330E-4	4.361070599E-4	5.748317367E-4
18.740000000000002	-3.048238255E-4	5.210445690E-4	-4.051682569E-4
18.75	-2.948238192E-4	-3.469241364E-4	-5.001057580E-4
18.76	-2.938550686E-4	-4.308928972E-4	1.270019095E-3
18.77	-2.938550686E-4	4.461070850E-4	5.748317367E-4
18.78	-2.848238340E-4	1.407075832E-3	-4.051682569E-4
18.79	-2.838550856E-4	5.969508104E-4	3.849567525E-4
18.8	-2.748238299E-4	1.367075807E-3	4.798942536E-4
18.81	-2.738550793E-4	5.659820619E-4	4.798942536E-4
18.82	1.469176048E-3	1.337075770E-3	4.798942536E-4
18.830000000000002	-1.049488328E-4	5.450133385E-4	4.798942536E-4
18.84	5.731448884E-4	-4.169241527E-4	4.798942536E-4
18.85	6.661448838E-4	-1.385955386E-3	2.259050341E-3
18.86	6.480824145E-4	-1.470892900E-3	1.555800328E-3
18.87	-2.298863370E-4	-1.460892917E-3	1.459894079E-3
18.88	-1.181689751E-3	-1.441864438E-3	5.749700503E-4
18.89	4.691469249E-4	-1.412830860E-3	4.798942536E-4
18.900000000000002	-2.108550773E-4	-1.382830372E-3	-4.051682569E-4
18.91	5.631449032E-4	-1.361861649E-3	1.270019095E-3
18.92	-2.018238216E-4	-1.350892918E-3	1.459894079E-3
18.93	-1.160855026E-3	-1.331861616E-3	5.748317367E-4
18.94	1.356176085E-3	-1.293799087E-3	-1.290230767E-3
18.95	1.609051115E-3	-4.048616375E-4	2.900192514E-4
18.96	-1.549488320E-4	-1.176924121E-3	4.798942536E-4
18.97	-3.348238211E-4	-3.758303947E-4	1.364956596E-3
18.98	5.331449076E-4	-1.146924168E-3	5.748317367E-4
18.990000000000002	-2.498863286E-4	-1.212830382E-3	4.798942536E-4
19.0	-3.348238211E-4	-1.200892893E-3	4.798942536E-4
19.01	-3.248238359E-4	-1.181861591E-3	4.798942536E-4
19.02	-3.148238318E-4	-2.028861657E-3	4.798942536E-4
19.03	-3.048238255E-4	-2.092830293E-3	4.798942536E-4
19.04	5.631449032E-4	-2.929830367E-3	4.798942536E-4
19.05	6.471136662E-4	-2.107767912E-3	-4.051682569E-4
19.06	6.461449178E-4	-1.973799059E-3	-5.001057580E-4
19.07	-2.298863370E-4	-1.951861578E-3	1.270019095E-3
19.080000000000002	5.431448906E-4	-1.922830377E-3	5.748317367E-4
19.09	6.180823769E-4	-1.025830387E-3	4.798942536E-4
19.1	6.071136410E-4	-9.118616683E-4	-4.051682569E-4
19.11	-1.127855022E-3	-9.008928528E-4	-5.001057580E-4
19.12	-4.197613302E-4	-8.908928608E-4	1.270019095E-3
19.13	-2.075917576E-3	-8.718616431E-4	5.748317367E-4
19.14	-4.846988192E-4	-8.608929118E-4	-4.051682569E-4
19.150000000000002	-2.857519004E-4	-8.437177514E-4	2.940060902E-4
19.16	5.622098187E-4	-8.221122412E-4	-1.265671310E-3
19.17	6.661448838E-4	-8.018616269E-4	-5.950432591E-4
19.18	6.571136492E-4	-7.908928910E-4	3.849567525E-4
19.19	1.505082389E-3	-7.899241426E-4	-4.051682569E-4
19.2	-1.559175803E-4	-7.808929080E-4	3.849567525E-4
19.21	-3.438550768E-4	-7.708928829E-4	4.798942536E-4
19.22	-3.438550768E-4	-7.608928954E-4	4.798942536E-4
19.23	5.321761569E-4	-7.599241470E-4	4.798942536E-4
19.240000000000002	6.080823938E-4	1.161070868E-4	-4.051682569E-4
19.25	-2.608550645E-4	2.010445793E-4	-1.385168269E-3
19.26	1.389176089E-3	2.000758287E-4	-5.950432591E-4
19.27	-1.070011301E-3	1.076107084E-3	1.270019095E-3
19.28	3.982073880E-4	1.161044599E-3	1.459894079E-3
19.29	1.453144879E-3	1.142013298E-3	5.748317367E-4
19.3	-2.149488232E-4	1.998044514E-3	-4.051682569E-4
19.31	-3.948238334E-4	1.186950782E-3	-1.385168269E-3
19.32	4.821761488E-4	1.072013314E-3	-5.950432591E-4
19.330000000000002	-1.175917528E-3	1.850133387E-4	1.270019095E-3
19.34	-4.787925521E-4	9.007584097E-5	1.459894079E-3
19.35	-1.241823820E-3	8.104458528E-5	-3.102307738E-4
19.36	4.182073961E-4	9.651383347E-4	3.849567525E-4
19.37	-2.698863412E-4	1.750133347E-4	4.798942536E-4
19.38	-3.548238127E-4	7.104458950E-5	-4.051682569E-4
19.39	-1.220855017E-3	9.551383505E-4	1.270019095E-3
19.400000000000002	4.291761365E-4	1.908044490E-3	5.748317367E-4
19.41	6.071136410E-4	1.982013259E-3	1.364956596E-3
19.42	5.971136580E-4	3.668919503E-3	-1.195293284E-3
19.43	-2.798863242E-4	3.804919410E-3	2.900192514E-4
19.44	4.931448846E-4	3.745888243E-3	-4.051682569E-4
19.45	5.771136454E-4	3.694919411E-3	3.849567525E-4
19.46	-2.998863368E-4	3.644919646E-3	4.798942536E-4
19.47	-1.269886277E-3	2.727919540E-3	1.364956596E-3
19.48	-1.336761317E-3	1.717919561E-3	-3.102307738E-4
19.490000000000002	-1.324823837E-3	7.259820695E-4	3.849567525E-4
19.5	-1.314823770E-3	-2.459554137E-4	4.798942536E-4
19.51	-4.197613302E-4	-3.399241620E-4	4.798942536E-4
19.52	5.521761673E-4	-1.206924161E-3	4.798942536E-4
19.53	-1.096886315E-3	-1.281861608E-3	4.798942536E-4
19.54	-3.897613181E-4	-3.948616545E-4	-4.051682569E-4
19.55	-2.938550686E-4	-1.157892904E-3	-5.001057580E-4
19.56	-2.848238340E-4	-3.648616634E-4	-5.001057580E-4
19.57	-1.150855043E-3	-1.127892866E-3	-5.001057580E-4
19.580000000000002	-3.497613350E-4	5.321383149E-4	3.849567525E-4
19.59	-2.538550900E-4	-1.559554059E-4	4.798942536E-4
19.6	6.131449091E-4	6.170758262E-4	4.798942536E-4
19.61	-1.608550901E-4	-1.569241542E-4	-4.051682569E-4
19.62	-2.538550900E-4	-1.116924130E-3	-5.001057580E-4
19.63	1.480144950E-3	-3.248616487E-4	-5.001057580E-4
19.64	7.810824021E-4	-2.299241509E-4	3.849567525E-4
19.650000000000002	6.780349063E-4	-1.008484529E-3	-3.148861327E-4
19.66	6.583306947E-4	-1.172109901E-3	3.727904212E-4
19.67	-2.108550773E-4	-1.151861633E-3	4.798942536E-4
19.68	-3.038550749E-4	-1.140892902E-3	1.364956596E-3
19.69	-3.038550749E-4	-1.112830365E-3	-1.195293284E-3
19.7	-1.161823776E-3	-1.100892877E-3	2.900192514E-4
19.71	-1.226761317E-3	-1.090892894E-3	-4.051682569E-4
19.72	-3.297613269E-4	-1.080892911E-3	1.279050498E-3
19.73	-2.338550774E-4	-1.070892928E-3	5.758005031E-4
19.740000000000002	-2.428863331E-4	-1.042830391E-3	4.798942536E-4
19.75	6.231448944E-4	-1.039924137E-3	1.364956596E-3
19.76	-1.026886341E-3	-1.021861668E-3	-3.102307738E-4
19.77	5.472386552E-4	-1.010892852E-3	1.270019095E-3
19.78	-1.398863292E-4	-9.918616255E-4	-3.102307738E-4
19.79	-2.248238217E-4	-9.808928942E-4	3.849567525E-4
19.8	-2.238550711E-4	-1.828861634E-3	-1.290230767E-3
19.81	-2.238550711E-4	-1.892830428E-3	2.900192514E-4
19.82	-1.090855049E-3	-1.871861546E-3	4.798942536E-4
19.830000000000002	-2.987925784E-4	-9.758303699E-4	-4.051682569E-4
19.84	-1.948238261E-4	-1.737892852E-3	-5.001057580E-4
19.85	-1.938550755E-4	-1.811861630E-3	3.849567525E-4
19.86	1.531113625E-3	-9.067991530E-4	-4.051682569E-4
19.87	8.220511245E-4	-8.008928785E-4	3.849567525E-4
19.88	-1.408550820E-4	-7.818616563E-4	-1.290230767E-3
19.89	6.331448796E-4	-7.708928829E-4	2.900192514E-4
19.900000000000002	1.602176151E-3	-7.608928954E-4	1.364956596E-3
19.91	-6.494884064E-5	-7.508929124E-4	-3.102307738E-4
19.92	6.131449091E-4	-7.408928873E-4	3.849567525E-4
19.93	-1.036886324E-3	-7.399241344E-4	4.798942536E-4
19.94	-3.387925826E-4	1.361070783E-4	2.259050341E-3
19.95	-2.438550837E-4	-6.278928771E-4	6.707379862E-4
19.96	-2.438550837E-4	-7.108928872E-4	-4.051682569E-4
19.97	-2.348238280E-4	-7.008929042E-4	3.849567525E-4
19.98	6.331448796E-4	-6.908928791E-4	1.364956596E-3
19.990000000000002	7.171136404E-4	-6.808928916E-4	5.748317367E-4
20.0	-1.508550861E-4	-6.708929086E-4	-4.051682569E-4
20.01	6.231448944E-4	-6.699241602E-4	-5.001057580E-4
20.02	-1.026886341E-3	-6.608928835E-4	3.849567525E-4
20.03	5.382073785E-4	1.083107102E-3	4.798942536E-4
20.04	-1.408550820E-4	3.759820843E-4	-1.290230767E-3
20.05	-2.338550774E-4	1.147075811E-3	-5.950432591E-4
20.06	-1.100855035E-3	2.098044531E-3	3.849567525E-4
20.07	5.401448842E-4	2.144919604E-3	-1.290230767E-3
20.080000000000002	-1.498863377E-4	3.865044542E-3	2.900192514E-4
20.09	-1.110855020E-3	3.128888335E-3	4.798942536E-4
20.1	5.301449012E-4	2.984919499E-3	4.798942536E-4
20.11	7.161448920E-4	2.076950760E-3	4.798942536E-4
20.12	6.980823806E-4	2.829013334E-3	4.798942536E-4
20.13	-1.037855077E-3	1.998888224E-3	-1.290230767E-3
20.14	-3.387925826E-4	9.969508159E-4	2.900192514E-4
20.150000000000002	-2.513811301E-4	8.925497982E-4	4.798942536E-4
20.16	-2.450660220E-4	8.812867965E-4	-3.814338816E-4
20.17	-1.110855020E-3	4.044595703E-6	-5.001057580E-4
20.18	-1.185792544E-3	1.644075832E-3	-5.001057580E-4
20.19	-1.156761343E-3	1.802982127E-3	-5.001057580E-4
20.2	-2.687925873E-4	1.772982009E-3	-5.001057580E-4
20.21	-1.738550862E-4	2.619013318E-3	-5.001057580E-4
20.22	1.560144828E-3	2.664919484E-3	-5.001057580E-4
20.23	8.520511577E-4	3.499982062E-3	3.849567525E-4
20.240000000000002	7.471136405E-4	2.659856969E-3	-4.051682569E-4
20.25	7.371136530E-4	1.656950728E-3	3.849567525E-4
20.26	-1.489175849E-4	1.532982026E-3	-4.051682569E-4
20.27	-2.348238280E-4	1.502982077E-3	-5.001057580E-4
20.28	-1.100855035E-3	6.150133218E-4	-5.001057580E-4
20.29	-2.999010518E-4	-1.213653112E-3	-1.385029955E-3
20.3	-1.948239776E-4	-1.372830835E-3	2.990204843E-4
20.31	-1.938550755E-4	-1.351861666E-3	-4.041995266E-4
20.32	-1.848238409E-4	-1.322830381E-3	-5.001057580E-4
20.330000000000002	-1.748238368E-4	-1.301861658E-3	-5.001057580E-4
20.34	6.931449129E-4	-1.281861608E-3	-5.001057580E-4
20.35	7.680824014E-4	-1.270892867E-3	3.849567525E-4
20.36	1.615082388E-3	-1.242830415E-3	-4.051682569E-4
20.37	-5.494883660E-5	-3.548616593E-4	-5.001057580E-4
20.38	-2.348238280E-4	-2.508929025E-4	-5.001057580E-4
20.39	6.331448796E-4	-1.116924130E-3	-5.001057580E-4
20.400000000000002	1.584113682E-3	-1.191861658E-3	3.849567525E-4
20.41	7.820511504E-4	-1.171861608E-3	-1.290230767E-3
20.42	-1.065917529E-3	-2.848616550E-4	2.900192514E-4
20.43	-3.597613180E-4	-1.056924139E-3	4.798942536E-4
20.44	1.479176202E-3	-1.140892902E-3	-4.051682569E-4
20.45	7.720511674E-4	-1.121861600E-3	-5.001057580E-4
20.46	6.671136367E-4	-1.101861625E-3	3.849567525E-4
20.47	1.506051137E-3	-1.948861616E-3	-1.290230767E-3
20.48	-1.559175803E-4	-2.012830411E-3	2.900192514E-4
20.490000000000002	-3.348238211E-4	-2.849830335E-3	-4.051682569E-4
20.5	5.331449076E-4	-1.151736670E-3	-5.001057580E-4
20.51	-1.116886286E-3	-1.817892902E-3	-5.001057580E-4
20.52	4.482073962E-4	-1.015830404E-3	3.849567525E-4
20.53	6.180823769E-4	-9.018616012E-4	-1.290230767E-3
20.54	-2.508550814E-4	-8.818616261E-4	-5.950432591E-4
20.55	-3.348238211E-4	-8.618616601E-4	-1.385168269E-3
20.56	5.241136308E-4	-8.418616100E-4	-1.480105770E-3
20.57	6.071136410E-4	-8.308928696E-4	-5.950432591E-4
20.580000000000002	5.971136580E-4	-8.118616519E-4	-5.001057580E-4
20.59	-2.798863242E-4	-8.099241552E-4	3.849567525E-4
20.6	-3.648238378E-4	-8.008928785E-4	4.798942536E-4
20.61	-1.230855089E-3	-7.908928910E-4	-4.051682569E-4
20.62	4.372386558E-4	-7.808929080E-4	3.849567525E-4
20.63	-1.992917561E-3	-7.708928829E-4	4.798942536E-4
20.64	3.723011548E-4	-7.608928954E-4	4.798942536E-4
20.650000000000002	-7.388112734E-5	-7.523981181E-4	4.798942536E-4
20.66	-3.138550812E-4	-7.411350755E-4	4.798942536E-4
20.67	5.531449179E-4	-7.308928998E-4	4.798942536E-4
20.68	-2.208550813E-4	-7.208928747E-4	-4.051682569E-4
20.69	5.441136412E-4	1.561070909E-4	-5.001057580E-4
20.7	-2.308550899E-4	2.410445812E-4	-5.001057580E-4
20.71	5.431448906E-4	1.116107022E-3	3.849567525E-4
20.72	-1.115917537E-3	1.201044531E-3	1.364956596E-3
20.73	-4.187925819E-4	3.059820800E-4	-3.102307738E-4
20.740000000000002	-3.148238318E-4	1.077075834E-3	3.849567525E-4
20.75	1.420144875E-3	-5.819866335E-4	4.798942536E-4
20.76	1.588082401E-3	1.061070827E-4	-4.051682569E-4
20.77	6.920511591E-4	-6.669241494E-4	3.849567525E-4
20.78	5.871136329E-4	-7.508929124E-4	-4.051682569E-4
20.79	-2.898863117E-4	1.170758351E-4	3.849567525E-4
20.8	4.831449016E-4	1.068044599E-3	-1.290230767E-3
20.81	5.671136624E-4	-5.919866586E-4	-5.950432591E-4
20.82	-1.176886277E-3	9.631070312E-4	3.849567525E-4
20.830000000000002	-4.697613174E-4	1.132013306E-3	-4.051682569E-4
20.84	-3.738550724E-4	1.988044531E-3	-5.001057580E-4
20.85	4.931448846E-4	2.901919478E-3	-1.385168269E-3
20.86	-2.898863117E-4	2.086950743E-3	1.175081594E-3
20.87	-1.250855055E-3	2.829982082E-3	-3.102307738E-4
20.88	-4.497613093E-4	2.883950735E-3	3.849567525E-4
20.89	-3.448238252E-4	2.834919550E-3	-4.051682569E-4
20.900000000000002	-3.438550768E-4	2.784919467E-3	-5.001057580E-4
20.91	-3.438550768E-4	2.743950768E-3	3.849567525E-4
20.92	5.231448802E-4	2.694919601E-3	-4.051682569E-4
20.93	-2.598863161E-4	9.109195620E-4	3.849567525E-4
20.94	1.398207408E-3	7.110445722E-4	4.798942536E-4
20.95	6.920511591E-4	1.559013270E-3	-1.290230767E-3
20.96	-1.146886323E-3	-1.019866618E-4	-5.950432591E-4
20.97	4.272386308E-4	5.770758453E-4	3.849567525E-4
20.98	-2.508550814E-4	6.610445685E-4	-4.051682569E-4
20.990000000000002	-3.348238211E-4	1.518044580E-3	3.849567525E-4
21.0	-3.338550705E-4	7.159820865E-4	-4.051682569E-4
21.01	5.331449076E-4	1.478044475E-3	-5.001057580E-4
21.02	1.502176139E-3	1.552013244E-3	3.849567525E-4
21.03	-1.649488150E-4	6.559820863E-4	-4.051682569E-4
21.04	-1.220855017E-3	5.510445691E-4	3.849567525E-4
21.05	-4.197613302E-4	5.410445816E-4	4.798942536E-4
21.06	-3.238550875E-4	-3.269241449E-4	4.798942536E-4
21.07	-3.148238318E-4	-4.199241425E-4	-4.051682569E-4
21.080000000000002	5.441136412E-4	-1.277892886E-3	-5.001057580E-4
21.09	6.271136536E-4	-1.360892901E-3	3.849567525E-4
21.1	-2.318238382E-4	-1.332830364E-3	-4.051682569E-4
21.11	-3.238550875E-4	-1.302830406E-3	-1.385168269E-3
21.12	-3.238550875E-4	-1.281861608E-3	2.900192514E-4
21.13	-3.148238318E-4	-1.270892867E-3	-4.051682569E-4
21.14	5.531449179E-4	-1.251861650E-3	3.849567525E-4
21.150000000000002	6.461449178E-4	-1.233697266E-3	-3.152208597E-4
21.16	6.372372100E-4	-1.212108761E-3	-5.001057580E-4
21.17	6.090511422E-4	-3.248616487E-4	3.849567525E-4
21.18	-1.136886340E-3	-1.096924161E-3	1.364956596E-3
21.19	-4.297613223E-4	-1.180892843E-3	-3.102307738E-4
21.2	-3.248238359E-4	-1.161861616E-3	-5.001057580E-4
21.21	-3.148238318E-4	-1.150892885E-3	3.849567525E-4
21.22	5.531449179E-4	-1.131861667E-3	4.798942536E-4
21.23	-2.298863370E-4	-1.111861617E-3	-4.051682569E-4
21.240000000000002	-3.148238318E-4	-1.091861642E-3	-5.001057580E-4
21.25	-3.048238255E-4	-1.938861633E-3	-5.001057580E-4
21.26	-2.948238192E-4	-2.002830428E-3	-5.001057580E-4
21.27	5.641136538E-4	-1.972830310E-3	3.849567525E-4
21.28	-2.108550773E-4	-1.942830343E-3	-4.051682569E-4
21.29	1.439176095E-3	-1.912830394E-3	-5.001057580E-4
21.3	-1.349488449E-4	-1.891861680E-3	3.849567525E-4
21.31	-3.238550875E-4	-9.958303540E-4	4.798942536E-4
21.32	-3.148238318E-4	-8.818616261E-4	-4.051682569E-4
21.330000000000002	-3.138550812E-4	-8.708928948E-4	-5.001057580E-4
21.34	-1.180855080E-3	-8.608929118E-4	-5.001057580E-4
21.35	-3.797613351E-4	-8.418616100E-4	-5.001057580E-4
21.36	-2.838550856E-4	-8.308928696E-4	-5.001057580E-4
21.37	5.921761482E-4	-8.208928866E-4	3.849567525E-4
21.38	6.771136618E-4	-8.108929036E-4	4.798942536E-4
21.39	6.671136367E-4	-8.008928785E-4	-4.051682569E-4
21.400000000000002	-2.098863289E-4	-7.908928910E-4	-5.001057580E-4
21.41	-3.038550749E-4	-7.808929080E-4	3.849567525E-4
21.42	-2.948238192E-4	-7.708928829E-4	4.798942536E-4
21.43	5.731448884E-4	-7.608928954E-4	-4.051682569E-4
21.44	6.571136492E-4	-7.508929124E-4	-1.385168269E-3
21.45	-2.108550773E-4	-7.408928873E-4	-1.480105770E-3
21.46	-2.948238192E-4	-7.308928998E-4	-5.950432591E-4
21.47	-1.160855026E-3	1.370758267E-4	-5.001057580E-4
21.48	-1.235792552E-3	1.097075802E-3	-5.001057580E-4
21.490000000000002	5.182074125E-4	1.172013331E-3	-5.001057580E-4
21.5	-1.698863248E-4	2.019013238E-3	-5.001057580E-4
21.51	5.941136494E-4	1.197919513E-3	-1.385168269E-3
21.52	-1.047855060E-3	1.082013297E-3	-5.950432591E-4
21.53	-3.487925866E-4	1.062013331E-3	-1.385168269E-3
21.54	6.131449091E-4	1.051044600E-3	2.900192514E-4
21.55	-1.036886324E-3	1.032013298E-3	-4.051682569E-4
21.56	-3.297613269E-4	1.012013323E-3	-5.001057580E-4
21.57	-1.091823800E-3	-7.419866411E-4	-5.001057580E-4
21.580000000000002	-3.078238341E-4	8.221383299E-4	-5.001057580E-4
21.59	-2.138550881E-4	1.250133370E-4	3.849567525E-4
21.6	6.441136553E-4	3.007583812E-5	-1.290230767E-3
21.61	7.271136279E-4	8.970758583E-4	2.900192514E-4
21.62	-1.589175934E-4	1.857075818E-3	-4.051682569E-4
21.63	-2.448238343E-4	1.913950874E-3	-5.001057580E-4
21.64	6.412074057E-4	2.759013284E-3	-5.001057580E-4
21.650000000000002	7.199134987E-4	3.588604232E-3	-5.001057580E-4
21.66	-1.390294435E-4	3.697719195E-3	-1.373096258E-3
21.67	-2.438550837E-4	3.608794371E-3	-1.480105770E-3
21.68	-2.438550837E-4	3.536857143E-3	-1.480105770E-3
21.69	6.321761290E-4	2.608888306E-3	2.900192514E-4
21.7	-1.498863377E-4	3.349982130E-3	-4.051682569E-4
21.71	1.490144936E-3	7.668258466E-4	-1.385168269E-3
21.72	-8.494882769E-5	1.338044522E-3	-5.950432591E-4
21.73	5.931448988E-4	-1.207049129E-3	1.279050498E-3
21.740000000000002	-1.065917529E-3	2.621383499E-4	-3.092620074E-4
21.75	-3.597613180E-4	4.410445697E-4	-1.385168269E-3
21.76	-1.139886307E-3	-4.359554169E-4	2.900192514E-4
21.77	-3.397613310E-4	-5.118616538E-4	-4.051682569E-4
21.78	-2.438550837E-4	-5.099241526E-4	3.849567525E-4
21.79	-1.110855020E-3	-4.918616412E-4	-4.051682569E-4
21.8	5.482074126E-4	3.770758171E-4	-1.385168269E-3
21.81	-1.398863292E-4	-3.969241446E-4	2.900192514E-4
21.82	-2.248238217E-4	1.244075774E-3	-4.051682569E-4
21.830000000000002	-2.238550711E-4	5.359820618E-4	3.939878189E-4
21.84	1.519176141E-3	-1.302955374E-3	4.808629839E-4
21.85	8.120511415E-4	2.621383499E-4	-4.051682569E-4
21.86	7.071136574E-4	-1.283924152E-3	-5.001057580E-4
21.87	-1.036886324E-3	-1.451861598E-3	-5.001057580E-4
21.88	-3.387925826E-4	-1.440892858E-3	3.849567525E-4
21.89	-1.110855020E-3	-1.412830405E-3	-4.051682569E-4
21.900000000000002	-3.187925655E-4	-1.391861607E-3	-5.001057580E-4
21.91	-2.238550711E-4	-1.371861632E-3	3.849567525E-4
21.92	-2.238550711E-4	-1.351861666E-3	-4.051682569E-4
21.93	-2.148238365E-4	-1.322830381E-3	-5.001057580E-4
21.94	-1.080855066E-3	-1.310892892E-3	3.939878189E-4
21.95	-2.887925744E-4	-1.282830356E-3	4.898940504E-4
21.96	6.641136679E-4	-3.948616545E-4	-4.041995266E-4
21.97	7.471136405E-4	-1.166924138E-3	-5.001057580E-4
21.98	7.371136530E-4	-1.241861667E-3	3.849567525E-4
21.990000000000002	-1.398863292E-4	-1.221861616E-3	-4.051682569E-4
22.0	-2.248238217E-4	-1.192830407E-3	-1.385168269E-3
22.01	6.431449070E-4	-1.180892843E-3	2.900192514E-4
22.02	7.180823932E-4	-1.152830382E-3	-1.290230767E-3
22.03	-1.508550861E-4	-2.007892943E-3	2.900192514E-4
22.04	6.141136597E-4	-1.196799135E-3	-4.051682569E-4
22.05	1.573144950E-3	-2.842955361E-3	3.849567525E-4
22.06	7.720511674E-4	-2.984767768E-3	-4.051682569E-4
22.07	6.671136367E-4	-2.049705324E-3	-1.385168269E-3
22.080000000000002	1.524113606E-3	-1.913799143E-3	-1.480105770E-3
22.09	7.130198735E-4	-1.015830404E-3	-1.480105770E-3
22.1	-2.598863161E-4	-9.108929200E-4	1.175081594E-3
22.11	-3.357925695E-4	-8.828303835E-4	-1.195293284E-3
22.12	-3.338550705E-4	-1.292416185E-5	-1.480105770E-3
22.13	-1.191823814E-3	-7.778928983E-4	-5.950432591E-4
22.14	-1.265792594E-3	-8.608929118E-4	-5.001057580E-4
22.150000000000002	9.094729818E-4	-8.524040096E-4	-1.237082087E-3
22.16	-9.310588299E-4	-8.323488449E-4	-1.480105770E-3
22.17	-3.807300835E-4	3.707583583E-5	-5.950432591E-4
22.18	-2.748238299E-4	1.300758312E-4	-5.001057580E-4
22.19	-2.648238236E-4	-7.369241258E-4	-5.001057580E-4
22.2	5.941136494E-4	-8.118616519E-4	-1.385168269E-3
22.21	6.771136618E-4	-8.008928785E-4	-5.950432591E-4
22.22	6.671136367E-4	-7.818616563E-4	-5.001057580E-4
22.23	-2.008550732E-4	-7.618616482E-4	-1.385168269E-3
22.240000000000002	5.641136538E-4	-7.508929124E-4	-1.480105770E-3
22.25	-1.086886332E-3	-7.408928873E-4	-5.950432591E-4
