Time (s)	Acceleration x (m/s^2)	Acceleration y (m/s^2)	Acceleration z (m/s^2)
0.0	-1.416313905E-6	9.098461130E-5	4.878206003E-3
0.01	-6.349185806E-4	9.098461130E-5	4.880877183E-3
0.02	2.235183450E-4	9.098461130E-5	3.932561376E-3
0.03	5.421017065E-4	9.098461130E-5	4.878206003E-3
0.04	2.544187320E-4	9.098461130E-5	4.878206003E-3
0.05	1.338142787E-4	9.098461130E-5	4.877834525E-3
0.06	4.956197531E-4	9.098461130E-5	4.868206004E-3
0.07	-2.057015709E-4	9.098461130E-5	4.868725525E-3
0.08	-9.963132389E-5	9.098461130E-5	4.936515458E-3
0.09	-9.817530381E-5	9.098461130E-5	5.792646436E-3
0.1	-4.602719663E-4	-3.370805440E-6	4.951015693E-3
0.11	-2.634138217E-4	-1.089969305E-3	5.858205965E-3
0.12	3.226557728E-4	-8.277896241E-5	5.858205965E-3
0.13	-3.321153053E-4	-5.472223121E-5	5.763631081E-3
0.14	-7.546325576E-5	-3.026577798E-4	5.082134764E-3
0.15	5.574094310E-4	4.287258241E-4	6.838205977E-3
0.16	3.683806305E-4	3.844632514E-4	6.721741357E-3
0.17	1.340031786E-4	7.443751269E-4	5.858205965E-3
0.18	-3.217878173E-4	2.290548817E-4	5.727241115E-3
0.19	6.553883373E-4	-1.193995692E-3	5.016421007E-3
0.2	1.197607701E-3	4.795000285E-4	5.858205965E-3
0.21	-3.201067337E-4	3.196750246E-4	6.011075436E-3
0.22	3.384640602E-4	-3.421634952E-4	6.838205977E-3
0.23	-3.157544417E-4	4.592767562E-4	6.670836269E-3
0.24	1.411258249E-4	4.492027687E-4	6.032825823E-3
0.25	-1.099532196E-3	4.391287819E-4	6.838205977E-3
0.26	6.738441802E-4	4.290547990E-4	7.216446128E-3
0.27	1.448583644E-3	4.169764216E-4	8.601804765E-3
0.28	1.244809096E-3	4.009845969E-4	7.818205988E-3
0.29	4.664303697E-4	3.966779727E-4	7.818205988E-3
0.3	2.425362017E-4	3.787573124E-4	7.599931193E-3
0.31	-2.881926273E-4	3.686833250E-4	7.289255814E-3
0.32	2.281839267E-4	3.609845950E-4	8.565430826E-3
0.33	-3.618959429E-5	5.961483170E-4	7.818205988E-3
0.34	9.362493745E-4	1.073555031E-3	7.570776437E-3
0.35000000000000003	-5.214163153E-4	8.477451169E-4	7.092885622E-3
0.36	-5.214163153E-4	2.023709316E-3	8.080135725E-3
0.37	-2.549831745E-4	1.554670995E-3	8.529025983E-3
0.38	1.749743671E-4	1.971733775E-3	7.541775966E-3
0.39	-2.435255897E-4	1.535980602E-3	7.121886096E-3
0.4	4.356145314E-4	2.205046272E-3	8.109182007E-3
0.41000000000000003	4.255394284E-4	2.181851906E-3	8.499871237E-3
0.42	1.129989529E-4	2.154748163E-3	7.818205988E-3
0.43	-2.517736268E-4	2.137792295E-3	7.818205988E-3
0.44	9.176490112E-5	2.121185996E-3	7.498121019E-3
0.45	-5.614162939E-4	2.418299209E-3	7.165541081E-3
0.46	-2.336593768E-4	3.044156291E-3	8.152791132E-3
0.47000000000000003	3.985836585E-4	3.017029824E-3	8.456316706E-3
0.48	3.950199941E-4	3.325969519E-3	7.818205988E-3
0.49	3.849460220E-4	3.567219379E-3	7.818205988E-3
0.5	7.386119688E-4	2.556109732E-3	7.818205988E-3
0.51	9.738079821E-4	1.913413270E-3	7.447215931E-3
0.52	3.547240838E-4	2.271505529E-3	7.594686279E-3
0.53	-3.297302537E-5	3.234674153E-3	8.412715593E-3
0.54	-6.214162851E-4	3.402149560E-3	7.425403717E-3
0.55	-1.017477942E-3	3.187046190E-3	8.038640371E-3
0.56	-1.184021352E-3	3.341118365E-3	8.963416197E-3
0.5700000000000001	-2.052334271E-4	2.734060305E-3	7.403560955E-3
0.58	7.618687179E-4	2.693764370E-3	6.838205977E-3
0.59	8.794384268E-4	2.653468409E-3	6.838205977E-3
0.6	-9.890566354E-5	2.608719465E-3	6.401810595E-3
0.61	-6.314163147E-4	2.553818279E-3	5.858205965E-3
0.62	-6.268137514E-4	2.046921948E-3	5.407156108E-3
0.63	-1.724693789E-4	1.476954994E-3	5.336505975E-3
0.64	-1.269664264E-4	1.907532671E-3	6.323756081E-3
0.65	-6.365918138E-4	9.874084319E-4	7.311006209E-3
0.66	-6.265178273E-4	-6.855892392E-5	6.858105286E-3
0.67	-6.164438399E-4	-6.637094045E-5	5.858205965E-3
0.68	-1.268823093E-4	-5.490153725E-4	6.352834435E-3
0.6900000000000001	3.434616810E-4	-5.438933919E-4	6.838205977E-3
0.7000000000000001	3.333877060E-4	-5.338194040E-4	6.838205977E-3
0.71	-1.773316053E-4	-5.237454180E-4	6.321750779E-3
0.72	-6.260723672E-4	-5.190153769E-4	5.858205965E-3
0.73	4.027304164E-4	-5.081778386E-4	5.327166943E-3
0.74	7.137434746E-4	-4.990153643E-4	5.416565785E-3
0.75	-2.647564260E-4	-4.878804609E-4	5.312596060E-3
0.76	-1.206069119E-3	-4.733739324E-4	4.878206003E-3
0.77	-1.582839186E-3	-4.575845419E-4	4.878206003E-3
0.78	-1.538258695E-3	-4.490153561E-4	4.878206003E-3
0.79	-9.409425056E-4	-4.372886332E-4	4.878206003E-3
0.8	-5.254780213E-4	-4.290153901E-4	4.878206003E-3
0.81	4.980982989E-5	-4.169895686E-4	4.878206003E-3
0.8200000000000001	4.164098990E-4	-4.090153775E-4	4.878206003E-3
0.8300000000000001	-1.828596941E-4	-9.881370148E-4	4.878206003E-3
0.84	3.465953246E-5	-1.330310789E-3	4.878206003E-3
0.85	3.822748414E-4	-1.899427709E-3	4.878206003E-3
0.86	3.722008690E-4	-9.879843987E-4	4.878206003E-3
0.87	-2.513659203E-4	-9.054227929E-4	3.618933395E-3
0.88	3.568896761E-5	-1.235950677E-3	4.202013622E-3
0.89	-2.590174261E-4	-5.815952741E-4	4.878206003E-3
0.9	-1.209365235E-3	-8.903249234E-4	4.878206003E-3
0.91	-8.662502426E-4	-1.195506767E-3	4.223039966E-3
0.92	7.527831608E-4	-1.168530518E-3	4.570548175E-3
0.93	2.644929377E-5	-1.152113075E-3	4.208687691E-3
0.9400000000000001	9.143003310E-5	-1.135060695E-3	4.585007015E-3
0.9500000000000001	3.715318950E-4	-1.114911817E-3	4.194182752E-3
0.96	3.614579145E-4	-4.178159760E-4	3.908206018E-3
0.97	-3.325921070E-4	-1.390153938E-4	3.908206018E-3
0.98	9.686164590E-5	-1.462891103E-4	3.195380654E-3
0.99	3.438882519E-4	-1.490153768E-4	4.361009356E-3
1.0	-1.806622372E-3	-8.690326493E-4	4.158188746E-3
1.01	-3.547234506E-4	-3.842853544E-4	3.173476043E-3
1.02	-3.558252032E-4	-1.465866068E-4	2.928206100E-3
1.03	-5.837710957E-4	-1.490153768E-4	4.419021365E-3
1.04	-5.814163065E-4	-1.567345691E-4	4.129444837E-3
1.05	1.745210211E-4	-1.668085565E-4	3.908206018E-3
1.06	1.120343754E-3	-1.611469965E-4	4.671439633E-3
1.07	1.270927463E-3	-1.510726743E-4	4.878206003E-3
1.08	4.729485552E-4	6.045529771E-4	4.100587577E-3
1.09	-4.981201657E-4	6.190074003E-6	3.908206018E-3
1.1	-6.814162764E-4	-1.790153724E-4	3.908206018E-3
1.11	-6.731763659E-4	-1.790153724E-4	3.908206018E-3
1.12	-6.631021256E-4	-1.790153724E-4	3.908206018E-3
1.1300000000000001	-2.263555376E-3	6.178600666E-4	3.908206018E-3
1.1400000000000001	-1.725201907E-3	7.540603156E-4	3.078916030E-3
1.1500000000000001	-1.562880145E-3	1.553380228E-3	2.928206100E-3
1.16	1.089440529E-4	2.483114261E-3	3.771996322E-3
1.17	3.785836692E-4	8.915355174E-4	3.057165642E-3
1.18	3.698242383E-4	1.471891379E-3	2.069780397E-3
1.19	3.597500592E-4	2.394844164E-3	3.679595834E-3
1.2	3.496760717E-4	1.574593937E-3	3.908206018E-3
1.21	3.575652623E-4	1.443021393E-3	2.147815803E-3
1.22	-5.288615852E-4	1.413817907E-3	1.948206088E-3
1.23	2.550199566E-4	2.278291232E-3	1.948206088E-3
1.24	-1.419566354E-3	1.422077153E-3	3.752380988E-3
1.25	-1.562138650E-3	2.222358485E-3	1.180585996E-3
1.26	-6.354733164E-4	2.262925595E-3	9.682062626E-4
1.27	3.335797403E-4	4.132843024E-4	2.815906402E-3
1.28	1.310182812E-3	1.222583763E-3	1.997105868E-3
1.29	4.010832856E-4	1.251834587E-3	1.948206088E-3
1.3	-5.678646819E-4	3.094230833E-3	2.893955469E-3
1.31	3.321394333E-4	1.235525881E-3	1.975201257E-3
1.32	2.249698139E-3	1.161387524E-3	1.948206088E-3
1.33	1.311206053E-3	1.836070410E-4	9.807011934E-4
1.34	-6.310338012E-4	1.610381268E-4	3.892471720E-3
1.35	-6.274664751E-4	1.118958547E-3	1.950211706E-3
1.36	1.261136941E-3	1.402022546E-4	2.909386744E-3
1.37	-2.600906187E-3	1.074154746E-3	9.848661045E-4
1.3800000000000001	-2.523352424E-3	7.756265362E-5	1.948206088E-3
1.3900000000000001	-6.010983582E-4	-8.590153582E-4	1.948206088E-3
1.4000000000000001	-5.918082310E-4	-8.586234185E-4	1.909795942E-3
1.41	-5.566878467E-4	-8.485494543E-4	9.682062626E-4
1.42	2.543662114E-4	-7.871766495E-4	1.074043687E-3
1.43	-1.332003568E-3	6.190075770E-5	2.807576578E-3
1.44	2.050392271E-3	-8.383259553E-4	1.035771177E-3
1.45	-1.495837838E-3	-8.290154091E-4	2.023021091E-3
1.46	-5.805789044E-4	-8.290154091E-4	2.764075789E-3
1.47	-6.589087519E-4	-8.281040222E-4	1.146836726E-3
1.48	-1.434835633E-3	-8.190153330E-4	2.831625494E-3
1.49	-6.553860751E-4	-8.190153330E-4	1.740266540E-3
1.5	-1.419061487E-3	-8.190153330E-4	9.942593952E-5
1.51	-5.402074058E-4	-8.190153330E-4	1.086676250E-3
1.52	-5.301334425E-4	-8.190153330E-4	1.948206088E-3
1.53	-3.911597503E-4	-8.190153330E-4	1.815235868E-3
1.54	2.997941799E-4	-8.190153330E-4	9.682062626E-4
1.55	-5.314162983E-4	-8.175102977E-4	1.263193644E-3
1.56	-3.781218024E-4	-8.074349970E-4	2.773331243E-3
1.57	5.973999427E-4	-9.578316414E-4	2.110331029E-3
1.58	8.956433357E-4	-1.755558752E-3	2.758831008E-3
1.59	-1.163572816E-3	-1.731806082E-3	2.301456427E-3
1.6	5.646186944E-5	-1.695262777E-3	3.540455381E-3
1.61	-1.509466007E-3	-1.673164594E-3	2.139331503E-3
1.62	-1.108651804E-3	-1.646990857E-3	2.729799296E-3
1.6300000000000001	4.364838822E-4	-1.630616224E-3	2.359765946E-3
1.6400000000000001	4.264098821E-4	-1.383811521E-3	3.695176010E-3
1.6500000000000001	2.028329736E-4	-1.040516790E-3	2.928206100E-3
1.6600000000000001	-5.390957563E-4	-2.290000899E-3	3.155617919E-3
1.67	-7.383408432E-5	-1.264234908E-3	3.908206018E-3
1.68	6.599012931E-4	-5.165456821E-4	3.666175539E-3
1.69	-1.279552263E-3	-7.532471199E-4	2.928206100E-3
1.7	-7.876243683E-4	-1.709984936E-3	3.184891096E-3
1.71	-1.465257024E-3	-2.362083115E-3	4.169447911E-3
1.72	-6.216965644E-4	-1.743877591E-3	4.609787951E-3
1.73	6.418011215E-4	-3.218565629E-4	3.629770692E-3
1.74	-8.787907918E-4	-6.059553928E-4	3.213891564E-3
1.75	4.826054109E-4	-9.890689335E-4	3.908206018E-3
1.76	1.744778862E-4	-3.028881604E-4	4.505608395E-3
1.77	-1.963809225E-4	-2.858767027E-4	5.550615878E-3
1.78	4.421583525E-4	-2.790153888E-4	4.566578463E-3
1.79	1.130666071E-4	-2.790153888E-4	4.227009712E-3
1.8	-8.473142476E-4	-2.790153888E-4	4.878206003E-3
1.81	-1.131391088E-3	-2.790153888E-4	4.545050036E-3
1.82	-8.077654095E-4	-2.755062561E-4	4.248591669E-3
1.83	-1.060171210E-3	-2.690153825E-4	5.580696092E-3
1.84	-7.789371266E-4	7.484733722E-5	6.479710791E-3
1.85	-1.366487910E-3	6.635204097E-4	5.492460693E-3
1.86	-6.106497611E-4	6.433724352E-4	4.878206003E-3
1.87	-1.741472227E-4	6.271045290E-4	5.638697039E-3
1.8800000000000001	-1.349554147E-3	9.966181421E-4	6.450710320E-3
1.8900000000000001	-1.323359000E-3	1.168119413E-3	5.858205965E-3
1.9000000000000001	-5.194267776E-4	1.346559813E-3	5.456055845E-3
1.9100000000000001	-1.835066136E-4	2.431741671E-3	4.878206003E-3
1.92	-4.808701327E-4	2.365475373E-3	5.294856360E-3
1.93	2.133342198E-4	1.889781997E-3	5.434305483E-3
1.94	8.653579624E-5	1.724537167E-3	5.740507211E-3
1.95	1.890622680E-4	2.228613612E-3	6.399736198E-3
1.96	9.074170478E-5	2.173690337E-3	5.412400873E-3
1.97	5.993376435E-4	2.117869459E-3	5.331261208E-3
1.98	5.885836617E-4	1.625982231E-3	7.239121927E-3
1.99	1.257991957E-4	2.012240584E-3	7.863094972E-3
2.0	5.536599773E-4	2.051683475E-3	6.838205977E-3
2.0100000000000002	1.056690104E-3	1.975420247E-3	6.838205977E-3
2.02	6.419452332E-5	2.926016031E-3	6.838205977E-3
2.0300000000000002	7.022541126E-5	2.389068910E-3	6.341495780E-3
2.04	4.976583477E-5	1.880699647E-3	6.866126597E-3
2.05	-4.266327230E-4	1.354557712E-3	7.818205988E-3
2.06	-9.392960005E-4	1.383573912E-3	7.299745436E-3
2.07	-1.396780666E-3	2.340602047E-3	7.889627212E-3
2.08	-8.683716220E-4	1.709456006E-3	8.265161248E-3
2.09	-4.159023781E-4	2.761333794E-4	7.818205988E-3
2.1	1.194352065E-4	9.138634906E-4	8.919024343E-3
2.11	5.329217714E-4	1.200457283E-3	9.227678523E-3
2.12	5.228478077E-4	2.088690861E-4	8.236090406E-3
2.13	1.076329613E-3	9.122863312E-4	7.818205988E-3
2.14	8.902002610E-4	2.905089756E-6	7.818205988E-3
2.15	4.726249198E-4	-6.210163574E-4	7.818205988E-3
2.16	-1.166531864E-4	-2.350487543E-4	7.818205988E-3
2.17	8.488934950E-5	-2.390153869E-4	7.818205988E-3
2.18	-1.348241234E-4	-2.451967079E-4	8.423976364E-3
2.19	-4.951610012E-4	-8.557806650E-4	8.185185334E-3
2.2	1.161958137E-4	-1.212686057E-3	7.818205988E-3
2.21	-1.461305973E-4	-1.202612060E-3	7.818205988E-3
2.22	1.304979890E-4	-1.192537076E-3	8.453076733E-3
2.23	4.620308809E-4	-1.189015356E-3	8.798205814E-3
2.24	4.519568865E-4	-1.182388577E-3	8.798205814E-3
2.25	1.091857663E-3	-1.185716133E-3	9.454881516E-3
2.2600000000000002	7.378832317E-4	-1.182240616E-3	9.778206012E-3
2.27	4.185836711E-4	-1.172166652E-3	8.435854382E-3
2.2800000000000002	-2.459967756E-4	-1.169015390E-3	7.818205988E-3
2.29	1.303720501E-4	-1.148021974E-3	6.446638061E-3
2.3000000000000003	-9.463603750E-4	-1.131943111E-3	6.551286393E-3
2.31	-1.497123828E-3	-1.815053455E-3	8.238866895E-3
2.32	-8.347519907E-5	-2.081795078E-3	8.798205814E-3
2.33	4.512894834E-4	-2.064426884E-3	8.083375189E-3
2.34	1.855904535E-3	-1.322198122E-3	7.096125086E-3
2.35	1.705907027E-4	-1.059015391E-3	7.567536973E-3
2.36	8.694258014E-4	-1.051498017E-3	7.818205988E-3
2.37	5.970064718E-4	-1.041423639E-3	7.074220473E-3
2.38	3.432523315E-4	-1.751922658E-3	6.086970369E-3
2.39	-4.121624119E-4	-1.195050329E-3	6.616691718E-3
2.4	-1.381524814E-3	-9.533881222E-4	7.603941820E-3
2.41	-6.121956725E-5	-1.690450913E-3	6.272234009E-3
2.42	-4.078867236E-4	-1.857163898E-3	5.858205965E-3
2.43	-6.014163191E-4	-1.053462931E-3	7.433239034E-3
2.44	1.772234786E-4	-8.509045407E-4	7.023344518E-3
2.45	3.503972768E-4	-8.408289911E-4	6.838205977E-3
2.46	-4.443152676E-4	-8.224966149E-4	6.028788278E-3
2.47	-5.947501505E-4	-7.856831073E-4	5.041565081E-3
2.48	2.157876719E-4	-7.706069621E-4	5.702226703E-3
2.49	3.516184624E-4	-7.605327326E-4	6.689501419E-3
2.5	-4.728486584E-4	-7.419021968E-4	5.999660440E-3
2.5100000000000002	-6.114163021E-4	-7.303848222E-4	5.858205965E-3
2.52	-6.114163021E-4	-7.290153927E-4	6.711251737E-3
2.5300000000000002	1.074061411E-3	-7.202368779E-4	6.838205977E-3
2.54	4.320471561E-4	-7.101614380E-4	5.970523347E-3
2.5500000000000003	1.139965617E-3	-6.822311840E-4	4.983255626E-3
2.56	3.473810988E-4	-6.610112807E-4	5.760406499E-3
2.57	2.485836805E-4	-6.499393607E-4	5.858205965E-3
2.58	2.394322269E-4	-6.490153889E-4	6.755047866E-3
2.59	2.293581272E-4	-6.397897989E-4	5.934100823E-3
2.6	2.099875196E-4	-6.111211236E-4	4.946994165E-3
2.61	-6.818917554E-4	2.720866168E-4	4.878206003E-3
2.62	-7.225212930E-4	3.120896002E-4	4.878206003E-3
2.63	-7.023733178E-4	1.196482801E-3	4.878206003E-3
2.64	2.197484454E-4	1.202602724E-3	4.878206003E-3
2.65	1.157842239E-3	2.437093034E-4	4.878206003E-3
2.66	2.238324115E-4	2.052782410E-3	4.878206003E-3
2.67	-7.342196507E-4	1.666450246E-4	4.878206003E-3
2.68	1.884152478E-4	1.210916459E-4	4.878206003E-3
2.69	-7.582429282E-4	3.001431382E-3	3.911412426E-3
2.7	1.985427468E-4	1.000943630E-3	4.870225522E-3
2.71	1.775509806E-4	1.001557573E-3	2.950616265E-3
2.72	-7.889386932E-4	1.927935502E-3	4.878206003E-3
2.73	-1.640114495E-3	2.798868946E-3	4.878206003E-3
2.74	2.160951392E-4	2.718277234E-3	4.878206003E-3
2.75	-6.718255760E-4	2.638097736E-3	4.838202858E-3
2.7600000000000002	2.480972963E-4	2.522346111E-3	3.860540399E-3
2.77	2.380232218E-4	1.569303249E-3	2.983130528E-3
2.7800000000000002	1.681712911E-4	1.597581449E-3	3.969890258E-3
2.79	-6.525559673E-4	2.359284614E-3	4.809345669E-3
2.8000000000000003	2.477997984E-4	1.417849059E-3	3.908206018E-3
2.81	3.200805564E-4	1.295198369E-3	3.908206018E-3
2.82	1.096331151E-3	2.924595065E-4	3.998594805E-3
2.83	1.020246146E-4	-4.734621470E-4	4.878206003E-3
2.84	-5.529811487E-4	3.809846076E-4	4.667610925E-3
2.85	9.444438933E-4	2.689147298E-4	2.928206100E-3
2.86	-7.701869661E-4	-7.058026614E-4	3.048681412E-3
2.87	-8.865351031E-4	-1.411289929E-3	3.908206018E-3
2.88	-1.718661587E-3	-5.562607570E-4	3.773230470E-3
2.89	-1.277641664E-3	-6.797898036E-4	2.928206100E-3
2.9	9.226826018E-4	-1.505964757E-3	3.077681883E-3
2.91	-7.198168080E-4	-1.484216832E-3	3.908206018E-3
2.92	-3.932044764E-4	-1.450641366E-3	4.070661540E-3
2.93	1.015454440E-3	-1.402020232E-3	4.708574376E-3
2.94	3.717459520E-4	-1.367192572E-3	3.729575474E-3
2.95	9.627030398E-4	-1.357118609E-3	2.928206100E-3
2.96	-1.863494471E-5	-1.343103188E-3	3.121336878E-3
2.97	-7.814162927E-4	-1.319015322E-3	3.507381194E-3
2.98	-9.849610463E-4	-1.314774813E-3	1.948206088E-3
2.99	-1.521992450E-3	-1.294626886E-3	2.378276884E-3
3.0	-5.213990360E-4	-1.274478938E-3	3.908206018E-3
3.0100000000000002	2.238992874E-4	-1.259015331E-3	3.449134753E-3
3.02	2.085836786E-4	-1.256599154E-3	1.711420397E-3
3.0300000000000002	2.060935150E-4	-1.490561069E-3	1.212242095E-3
3.04	4.447800973E-4	-2.211321703E-3	2.199531608E-3
3.0500000000000003	6.438426904E-4	-1.925045530E-3	2.928206100E-3
3.06	-7.887026019E-4	-1.452242148E-3	2.662265609E-3
3.0700000000000003	-7.786286385E-4	-2.418267555E-3	2.221396674E-3
3.08	-4.938372324E-4	-2.802851259E-3	2.647765374E-3
3.09	-8.323589236E-5	-2.080208509E-3	1.948206088E-3
3.1	-1.805631889E-4	-2.056005679E-3	1.653265183E-3
3.11	5.702745692E-4	-2.042847168E-3	1.270444824E-3
3.12	-7.682571633E-4	-1.713101626E-3	1.948206088E-3
3.13	-1.374245179E-4	-1.649773983E-3	2.265051661E-3
3.14	5.270065240E-4	-2.932479788E-3	2.928206100E-3
3.15	-4.468326691E-4	-2.564288457E-3	2.596860291E-3
3.16	-1.431021041E-4	-1.566964379E-3	2.286801999E-3
3.17	-4.290993177E-4	-9.154863141E-4	2.582360056E-3
3.18	-1.473608466E-4	-1.258563502E-3	1.595054437E-3
3.19	-4.045943523E-4	-1.875336824E-3	9.682062626E-4
3.2	5.650766534E-4	-1.497512171E-3	1.703707502E-3
3.21	4.162352486E-4	-8.751887923E-4	2.928206100E-3
3.22	-3.251663514E-5	-8.651148285E-4	2.545955209E-3
3.23	3.674093280E-4	-8.550402395E-4	1.948206088E-3
3.24	-7.973662109E-4	-8.449653272E-4	2.345111462E-3
3.25	-3.913848317E-4	-8.431394208E-4	2.524050598E-3
3.2600000000000002	1.743856640E-4	-8.490153751E-4	1.536800555E-3
3.27	9.973511310E-4	-8.532873651E-4	9.682062626E-4
3.2800000000000002	1.252425994E-3	-8.590153582E-4	1.394112030E-3
3.29	1.385836811E-4	-8.590153582E-4	1.515050198E-3
3.3000000000000003	-2.929024162E-4	-8.545207189E-4	1.849156972E-3
3.31	-8.168468312E-4	-8.490153751E-4	1.580205313E-3
3.3200000000000003	-3.609992240E-4	-8.490153751E-4	4.379103191E-4
3.33	1.585836821E-4	-3.961396006E-4	9.682062626E-4
3.34	-3.061857030E-4	-3.537847512E-4	4.938540145E-4
3.35	-3.394708142E-4	-8.590153582E-4	9.366934582E-4
3.36	1.536442862E-4	9.428853537E-5	1.948206088E-3
3.37	-3.327764769E-4	1.060956257E-3	1.456817686E-3
3.38	-3.228786486E-4	1.040806713E-3	1.965637266E-3
3.39	-3.418932001E-4	1.015495831E-3	2.928206100E-3
3.4	-7.961793720E-4	9.957476688E-4	2.928206100E-3
3.41	-7.861054083E-4	-3.401457873E-5	2.407740198E-3
3.42	-1.303747468E-3	1.002620431E-4	1.420490165E-3
3.43	-6.869429013E-4	1.498656464E-3	2.038138435E-3
3.44	-1.400652581E-3	1.367615580E-3	2.385904505E-3
3.45	-1.053771125E-3	9.097678698E-4	1.398585556E-3
3.46	2.172189750E-4	8.839375448E-4	2.081947653E-3
3.47	2.028273396E-4	1.412080054E-3	2.928206100E-3
3.48	-3.611266448E-4	6.740729170E-4	2.928206100E-3
3.49	-7.496077063E-4	1.561422120E-3	2.928206100E-3
3.5	-1.877467943E-3	2.699130006E-3	2.928206100E-3
3.5100000000000002	2.946924513E-4	1.466271884E-3	2.928206100E-3
3.52	-1.567523060E-4	1.250871210E-3	3.528731766E-3
3.5300000000000002	1.409021532E-4	9.908051750E-4	3.908206018E-3
3.54	-5.562880222E-4	1.478600340E-5	4.516956187E-3
3.5500000000000003	-1.570618278E-3	8.547386683E-4	4.878206003E-3
3.56	-3.016351468E-4	8.986109202E-4	4.878206003E-3
3.5700000000000003	-8.656732391E-4	1.158364925E-3	3.610951658E-3
3.58	-2.727747952E-4	2.091965291E-4	3.572386716E-3
3.59	3.819364182E-4	-4.590153857E-4	3.256775269E-3
3.6	-2.666547520E-4	-4.522941321E-4	3.586886950E-3
3.61	7.092428797E-5	2.033252225E-4	3.242275033E-3
3.62	1.038026402E-3	4.972461971E-4	2.928206100E-3
3.63	5.493829410E-6	-8.212757060E-4	4.282125411E-3
3.64	8.531857502E-5	-1.377960557E-3	4.197434603E-3
3.65	3.543982538E-4	-6.668369038E-4	4.596199047E-3
3.66	-3.322521332E-4	-1.052684458E-3	4.878206003E-3
3.67	-1.969903480E-3	-6.021886995E-4	4.878206003E-3
3.68	-3.555372291E-4	-1.038536833E-3	4.168684541E-3
3.69	4.138064094E-4	-1.269460797E-3	4.624903594E-3
3.7	-3.004763798E-4	-1.229160220E-3	4.878206003E-3
3.71	1.747099234E-4	-1.196400854E-3	4.878206003E-3
3.72	-3.145706675E-4	-1.166178870E-3	4.878206003E-3
3.73	-5.491024365E-4	-1.143643075E-3	5.631446951E-3
3.74	1.667975978E-3	-1.123495149E-3	5.097714926E-3
3.75	7.652671468E-4	-1.103347148E-3	5.645947187E-3
3.7600000000000002	-4.205914497E-4	-1.091107262E-3	5.858205965E-3
3.77	-1.379830885E-3	-1.073048743E-3	5.858205965E-3
3.7800000000000002	7.733483141E-4	-1.060957777E-3	5.858205965E-3
3.79	-1.035840821E-3	-1.059015391E-3	5.858205965E-3
3.8000000000000003	-7.690646443E-4	-1.838544713E-3	6.662352039E-3
3.81	-5.914162895E-4	-1.992456283E-3	6.838205977E-3
3.8200000000000003	2.105229235E-4	-1.947247641E-3	5.200913397E-3
3.83	3.601548396E-4	-1.096131259E-3	5.704232419E-3
3.84	3.500806056E-4	-2.554598385E-3	5.024905237E-3
3.85	-4.748131191E-4	-1.972733224E-3	6.559307808E-3
3.86	-6.200686804E-4	-9.724284771E-4	5.990271458E-3
3.87	1.062814685E-3	-8.390153921E-4	6.713411347E-3
3.88	-1.251977920E-3	-1.666138405E-3	5.975886217E-3
3.89	1.288134891E-4	-9.005910225E-4	7.597308761E-3
3.9	-5.194074734E-4	-1.657006593E-3	6.941266431E-3
3.91	-6.123937919E-4	-8.657869823E-4	6.838205977E-3
3.92	-6.114163021E-4	-7.690153248E-4	6.838205977E-3
3.93	-1.491781396E-3	-7.690153248E-4	6.838205977E-3
3.94	2.222895123E-4	-7.690153248E-4	7.744304805E-3
3.95	1.263304265E-3	-7.690153248E-4	6.904845364E-3
3.96	-1.405066350E-3	-7.690153248E-4	6.838205977E-3
3.97	2.553694496E-4	-7.690153248E-4	7.766066838E-3
3.98	-5.669852788E-4	-7.690153248E-4	6.883095053E-3
3.99	-6.114163021E-4	-7.497834985E-4	6.838205977E-3
4.0	3.189615081E-4	-7.490153587E-4	6.838205977E-3
4.01	3.388197392E-4	-7.392514471E-4	7.795070955E-3
4.0200000000000005	1.293007499E-3	-7.390153757E-4	7.818205988E-3
4.03	3.370679140E-4	-7.390153757E-4	8.789721586E-3
4.04	-6.501822181E-4	-7.390153757E-4	8.798205814E-3
4.05	-6.395665673E-4	-7.290153927E-4	7.818205988E-3
4.0600000000000005	1.252016774E-3	-7.158688955E-4	7.818205988E-3
4.07	-6.204970624E-4	2.307736825E-4	7.838876533E-3
4.08	1.250093226E-3	2.206997072E-4	8.798205814E-3
4.09	2.441306652E-4	2.109846054E-4	8.798205814E-3
4.1	-6.398611539E-4	2.105517397E-4	8.798205814E-3
4.11	2.299263537E-4	2.496419331E-4	8.748534804E-3
4.12	-6.814162764E-4	1.216752774E-3	7.932066093E-3
4.13	-7.444289840E-4	2.054689902E-3	9.649555071E-3
4.14	-1.498995426E-3	1.038678565E-3	7.889781606E-3
4.15	3.077793291E-4	1.982016278E-4	8.877031536E-3
4.16	2.142644738E-4	1.165303825E-3	9.692130129E-3
4.17	-4.766690387E-4	1.946706395E-3	8.891531776E-3
4.18	1.176981269E-3	1.248031618E-3	9.778206012E-3
4.19	1.840418545E-4	2.751996945E-3	9.562519710E-3
4.2	-5.485373983E-4	1.092687687E-3	7.933436524E-3
4.21	1.786025836E-4	2.049715939E-3	8.798205814E-3
4.22	-6.614163103E-4	2.877013184E-3	8.927936633E-3
4.23	-6.600185414E-4	2.709810344E-3	9.504244114E-3
4.24	-5.101287483E-4	1.838041133E-3	7.962436993E-3
4.25	1.601939494E-4	1.964737189E-3	8.798205814E-3
4.26	-8.069325899E-4	2.900021029E-3	8.798205814E-3
4.2700000000000005	-1.282535446E-3	3.496372551E-3	8.632070200E-3
4.28	-1.288015400E-5	2.805524160E-3	7.818205988E-3
4.29	-1.243830914E-3	3.204183219E-3	8.179477752E-3
4.3	1.526148465E-4	1.391181363E-3	9.590319945E-3
4.3100000000000005	-6.294251240E-4	7.821383375E-4	8.407933613E-3
4.32	-6.214162851E-4	1.544788090E-3	7.040624115E-3
4.33	-6.192755680E-4	1.101403330E-3	8.027996591E-3
4.34	-3.988049804E-4	-1.157803218E-5	8.581165123E-3
4.3500000000000005	3.485836736E-4	1.262116327E-3	7.593915111E-3
4.36	3.462210092E-4	4.886219248E-4	7.301287871E-3
4.37	5.700648382E-4	2.446301388E-4	8.559414746E-3
4.38	1.042542442E-3	-4.915260016E-4	8.064247148E-3
4.39	-1.929087744E-4	-7.471765732E-4	8.544874625E-3
4.4	-1.368060446E-3	-1.195659483E-3	7.818205988E-3
4.41	-6.386821614E-4	-4.690153687E-4	7.550260169E-3
4.42	-6.286081844E-4	-4.718234860E-4	7.113401937E-3
4.43	-3.447344507E-4	-7.556971862E-4	7.818205988E-3
4.44	5.479965663E-5	-1.430147068E-3	7.528509793E-3
4.45	-3.964399036E-5	-1.396895091E-3	6.541259683E-3
4.46	9.881302407E-4	-1.365910801E-3	6.466694637E-3
4.47	-6.657913747E-6	-1.352656158E-3	7.818205988E-3
4.48	-3.458189936E-4	-1.335761806E-3	7.499355081E-3
4.49	-1.418979889E-5	-1.322360255E-3	7.164307019E-3
4.5	-6.580147580E-4	-1.302212266E-3	7.484854844E-3
4.51	-6.514162807E-4	-1.285539855E-3	7.178807254E-3
4.5200000000000005	-6.407677708E-4	-1.254168839E-3	6.774651863E-3
4.53	-2.771310317E-4	-1.201767224E-3	5.588520855E-3
4.54	3.211856004E-4	-1.166821122E-3	6.113194218E-3
4.55	-4.158361737E-4	-1.121469337E-3	5.617717973E-3
4.5600000000000005	-1.226716109E-3	-1.089780390E-3	6.084193747E-3
4.57	-6.035743334E-4	-1.047252429E-3	4.878206003E-3
4.58	-9.629478135E-4	-1.400546854E-3	5.269712343E-3
4.59	-1.118527464E-3	-1.942736951E-3	5.858205965E-3
4.6000000000000005	-9.251436498E-4	-1.906581853E-3	5.858205965E-3
4.61	-1.873734886E-3	-1.467167463E-3	5.858205965E-3
4.62	-1.158018018E-3	-1.708875221E-3	5.858205965E-3
4.63	9.102962233E-4	-2.344905515E-3	5.430294780E-3
4.64	1.828221602E-3	-1.732372846E-3	4.878206003E-3
4.65	1.014685679E-3	-1.685470011E-3	5.320687094E-3
4.66	-1.408497454E-4	-1.214681104E-3	5.408460940E-3
4.67	3.692574777E-4	-6.743522725E-4	4.425885481E-3
4.68	3.585836799E-4	-6.595395333E-4	4.367784140E-3
4.69	-1.081705754E-4	-6.490153889E-4	5.349772148E-3
4.7	-6.016445351E-4	-6.441294940E-4	5.379389701E-3
4.71	-5.864564367E-4	-6.390153593E-4	4.397099471E-3
4.72	-1.031260079E-4	-6.339807331E-4	4.396565582E-3
4.73	3.634742861E-4	-6.239059881E-4	4.878206003E-3
4.74	-1.442039466E-4	-6.190153933E-4	4.375418375E-3
4.75	-6.061589526E-4	-6.137580193E-4	3.392984932E-3
4.76	-8.960774785E-5	-6.036840335E-4	3.450677306E-3
4.7700000000000005	3.531783565E-4	-5.882047338E-4	4.432522055E-3
4.78	3.431043693E-4	-5.735360766E-4	4.346713825E-3
4.79	-1.946152987E-4	-5.634612125E-4	3.363898759E-3
4.8	-8.104800920E-5	-5.590153555E-4	3.479832029E-3
4.8100000000000005	8.803512982E-4	-5.533125479E-4	3.908206018E-3
4.82	1.736616467E-4	-5.490153725E-4	3.908206018E-3
4.83	-1.197240253E-3	-5.431646035E-4	3.334829729E-3
4.84	-1.010789822E-3	-5.390153895E-4	2.928206100E-3
4.8500000000000005	-2.353973514E-5	-5.330166312E-4	3.516082625E-3
4.86	-8.095241990E-4	6.369470610E-4	3.313079386E-3
4.87	-3.787684038E-4	7.762176352E-4	3.530677663E-3
4.88	9.659203442E-4	3.847623530E-4	2.688643687E-3
4.89	1.315991208E-3	3.683921243E-4	1.948206088E-3
4.9	1.295843221E-3	3.546143872E-4	1.948206088E-3
4.91	3.196481396E-5	9.696277259E-4	1.948206088E-3
4.92	-6.548970850E-4	1.930309081E-3	1.948206088E-3
4.93	-6.448225569E-4	2.234609569E-3	2.594392133E-3
4.94	-6.414162977E-4	1.547545272E-3	3.581642184E-3
4.95	6.597311158E-4	2.505390268E-3	2.586833517E-3
4.96	-6.947784494E-4	1.788296110E-3	1.280269833E-3
4.97	-9.393401586E-4	2.476909304E-3	2.318579172E-3
4.98	-6.244515586E-4	2.367546318E-3	2.245662011E-3
4.99	4.730709741E-5	2.039866941E-3	1.948206088E-3
5.0	-3.542810893E-4	2.002531832E-3	2.645297220E-3
5.01	7.628918236E-4	1.272269035E-3	2.223864871E-3
5.0200000000000005	5.897311860E-4	9.837234486E-4	1.948206088E-3
5.03	3.112474014E-4	1.677930479E-3	1.229251556E-3
5.04	-4.102514747E-4	4.859036310E-4	9.682062626E-4
5.05	-6.464469953E-4	6.920266044E-4	2.435198088E-3
5.0600000000000005	-1.367045027E-3	2.374683560E-3	2.187460024E-3
5.07	-8.457874539E-4	1.337359556E-3	1.200210011E-3
5.08	-6.037097203E-4	8.478648088E-4	2.478698742E-3
5.09	-5.936357201E-4	-6.762277194E-4	6.407167302E-4
5.1000000000000005	-1.353308257E-3	4.226231147E-4	1.527699158E-3
5.11	-2.328002521E-5	6.398791953E-5	3.942127010E-4
5.12	-1.166145516E-3	-9.233856615E-4	-1.179393529E-5
5.13	-7.597651306E-4	-1.119015382E-3	1.571508381E-3
5.14	-5.714162769E-4	-3.119620351E-4	1.948206088E-3
5.15	2.347350782E-4	-9.351667810E-4	1.142054848E-3
5.16	4.002836479E-4	-1.100715320E-3	9.682062626E-4
5.17	-1.217597498E-3	-1.107389383E-3	9.682062626E-4
5.18	-7.033842318E-4	-1.100566028E-3	1.401740289E-4
5.19	-2.213504949E-3	-1.090491805E-3	-8.470999337E-4
5.2	-8.163038046E-4	-1.080417842E-3	-1.492376806E-4
5.21	-1.382551156E-3	-1.070343878E-3	8.380126204E-4
5.22	-6.454780217E-4	-1.069015374E-3	1.825397546E-3
5.23	3.254024669E-4	-1.060194360E-3	2.192843853E-4
5.24	-4.242322874E-4	-1.059015391E-3	8.599172379E-4
5.25	3.294712889E-4	-1.050047743E-3	9.682062626E-4
5.26	-4.574732506E-4	-1.039973933E-3	8.214914735E-5
5.2700000000000005	3.329145432E-4	-1.029898534E-3	-1.179393529E-5
5.28	-4.822695219E-4	-1.029015349E-3	-1.179393529E-5
5.29	-5.614162939E-4	-1.918598262E-3	-1.179393529E-5
5.3	3.352686472E-4	-1.064309008E-3	-1.179393529E-5
5.3100000000000005	-5.052034810E-4	-2.816004113E-3	9.108223350E-4
5.32	-5.614162939E-4	-1.989660704E-3	3.833991672E-5
5.33	-5.614162939E-4	-1.929452898E-3	-1.179393529E-5
5.34	3.829500659E-4	-1.919378935E-3	-9.561601605E-4
5.3500000000000005	4.088717864E-4	-1.909303442E-3	-4.002760684E-5
5.36	-1.489587364E-3	-1.889446603E-3	9.470762121E-4
5.37	3.814016016E-4	-9.128866548E-4	-9.643314450E-4
5.38	3.986497692E-4	-1.862602693E-3	-9.917937607E-4
5.39	-5.699052765E-4	-2.828228292E-3	-1.102269531E-5
5.4	1.340479094E-3	-1.836874236E-3	9.601835909E-4
5.41	3.433153038E-4	-2.758163776E-3	-4.264550030E-5
5.42	-5.889718359E-4	-8.514598743E-4	-1.949118101E-3
5.43	3.585836799E-4	-1.798404611E-3	-9.618677483E-4
5.44	3.582043318E-4	-1.741839288E-3	-1.179393529E-5
5.45	3.046107515E-4	-7.990153669E-4	-1.179393529E-5
5.46	-5.191182527E-4	-7.984880584E-4	3.988240175E-5
5.47	1.142979152E-3	-7.890153839E-4	8.503347247E-4
5.48	-1.469431330E-3	-7.883385395E-4	-9.917937607E-4
5.49	4.214137878E-4	-7.782645693E-4	-9.917937607E-4
5.5	1.157746288E-3	-7.690153248E-4	-9.109626757E-4
5.51	-7.185986938E-4	-7.690153248E-4	-9.987509614E-5
5.5200000000000005	-1.507057648E-3	-7.690153248E-4	-8.011310889E-4
5.53	-6.303695625E-4	-7.679685774E-4	9.682062626E-4
5.54	-7.290233327E-4	-7.590153418E-4	8.583573739E-4
5.55	-1.464180302E-3	-7.590153418E-4	-1.290298600E-4
5.5600000000000005	-6.001460498E-4	-7.590153418E-4	-1.116279812E-3
5.57	-5.914162895E-4	-6.299879638E-4	-1.576647564E-3
5.58	-3.193759941E-4	6.496446631E-5	8.293523303E-4
5.59	1.180855038E-3	-7.590153418E-4	-1.179393529E-5
5.6000000000000005	3.370174812E-4	-7.590153418E-4	-1.652804081E-4
5.61	1.711025762E-4	-7.573749163E-4	-9.917937607E-4
5.62	-6.314163147E-4	-5.825900613E-4	-8.236527634E-4
5.63	-4.578149099E-4	3.910065975E-4	1.635972134E-4
5.64	3.348562966E-4	9.883432944E-4	9.682062626E-4
5.65	3.185836780E-4	3.770006161E-4	7.783148742E-4
5.66	1.254654807E-4	1.146961291E-3	1.853476025E-4
5.67	-4.411959727E-4	1.126813345E-3	7.638146344E-4
5.68	1.090685736E-4	1.318339729E-3	-4.373040524E-4
5.69	-4.390756718E-4	1.847468168E-3	-1.541466703E-3
5.7	7.459663771E-5	1.290353360E-3	-4.666955247E-4
5.71	-4.402530793E-4	1.782671931E-3	-1.745864570E-3
5.72	5.344659123E-4	1.016070387E-3	-7.509973667E-4
5.73	1.008006016E-3	1.734999970E-3	-2.598404708E-4
5.74	2.685836698E-4	3.635225860E-3	-7.364569538E-4
5.75	-2.487765499E-4	2.352901829E-3	-1.179393529E-5
5.76	-1.655907089E-3	9.109846153E-4	-5.544509734E-4
5.7700000000000005	-1.092670914E-3	1.454072850E-3	-1.701764153E-3
5.78	1.993739419E-5	1.977630339E-3	-7.073423854E-4
5.79	-8.694290714E-5	4.624814456E-4	-1.179393529E-5
5.8	6.737308914E-4	1.508982325E-3	-3.107455433E-4
5.8100000000000005	-9.782912481E-4	1.120984519E-3	-6.855438646E-4
5.82	-7.001981189E-4	1.153772291E-3	-1.179393529E-5
5.83	1.272035578E-3	-1.790153724E-4	-3.326501503E-4
5.84	1.255235638E-3	-1.790153724E-4	-9.917937607E-4
5.8500000000000005	2.562021381E-4	-5.109498607E-4	-9.917937607E-4
5.86	-1.308809690E-3	-8.064087411E-4	-3.065805317E-4
5.87	-6.714162933E-4	1.737553828E-4	6.182943531E-4
5.88	-3.214462269E-4	8.010790727E-5	-1.179393529E-5
5.89	2.885836824E-4	-4.337124064E-4	-1.109046976E-3
5.9	-7.559069584E-5	5.125539957E-5	-2.214477458E-3
5.91	7.887168573E-5	-1.155147857E-3	-9.917937607E-4
5.92	8.783806388E-4	-1.145073893E-3	-6.055322403E-4
5.93	2.745682481E-4	-1.134999930E-3	-1.179393529E-5
5.94	1.057963395E-3	-1.124925322E-3	-8.175339385E-4
5.95	1.378086320E-3	-1.114850428E-3	-1.981794128E-3
5.96	-1.783547249E-4	-1.104776425E-3	-7.313060895E-4
5.97	-7.271033691E-4	-1.090389492E-3	5.455397417E-4
5.98	-7.170294054E-4	-1.074628461E-3	-1.179393529E-5
5.99	-7.114163185E-4	-1.069015374E-3	-8.905882473E-4
6.0	-1.151298208E-3	-1.064480517E-3	-1.981794128E-3
6.01	-1.672197126E-3	-1.049796220E-3	-1.073708397E-3
6.0200000000000005	-1.652047502E-3	-1.034330939E-3	-1.179393529E-5
6.03	-7.135319124E-4	-1.029015349E-3	-4.781152493E-4
6.04	-1.553230976E-4	-1.024182995E-3	-5.182223279E-4
6.05	-1.804073566E-4	-1.014109031E-3	4.690277957E-4
6.0600000000000005	3.085836717E-4	-1.487126510E-3	4.801344115E-4
6.07	3.035285801E-4	-2.444194798E-3	4.836059894E-4
6.08	-1.938828385E-4	-3.391222171E-3	-3.724624336E-5
6.09	-6.562124545E-4	-3.328631272E-3	-1.506974156E-3
6.1000000000000005	-1.168642795E-3	-2.326511033E-3	-2.499020323E-3
6.11	-1.620712653E-3	-1.848311743E-3	-1.383012172E-3
6.12	-1.085115309E-3	-2.354464683E-3	-5.435205612E-4
6.13	-1.078552245E-4	-2.772513478E-3	-9.917937607E-4
6.140000000000001	-7.530280262E-4	-2.207058865E-3	-9.917937607E-4
6.15	-5.098029009E-4	-1.769015396E-3	-9.917937607E-4
6.16	8.880185251E-4	-1.202410674E-3	-9.917937607E-4
6.17	1.623205190E-4	-1.341349727E-3	-9.917937607E-4
6.18	-6.555450513E-4	-1.167762456E-3	-4.164121827E-4
6.19	1.078643387E-3	-1.329756676E-3	-5.944256389E-4
6.2	-8.927530612E-5	-1.129040532E-3	-4.018190547E-4
6.21	-1.629226827E-3	-7.268258803E-4	-1.179393529E-5
6.22	-2.213615212E-3	-7.128466238E-4	-1.227035634E-3
6.23	-1.963386972E-3	-7.090153336E-4	-1.975551302E-3
6.24	-9.786963046E-4	-7.090153336E-4	-1.978110766E-3
6.25	-6.214162851E-4	-7.026246632E-4	-1.349116450E-3
6.26	-1.242121496E-3	-6.925496819E-4	-9.917937607E-4
6.2700000000000005	3.152466511E-4	-6.890153675E-4	-3.508526044E-4
6.28	6.637781118E-4	-6.890153675E-4	-6.599851928E-4
6.29	3.285836843E-4	-6.890153675E-4	-9.917937607E-4
6.3	3.353458321E-4	-6.890153675E-4	-9.917937607E-4
6.3100000000000005	-3.245219243E-4	-6.958514962E-4	-1.668571896E-3
6.32	-6.314163147E-4	-6.921052414E-4	-1.297691910E-3
6.33	-1.301890026E-3	-6.890153675E-4	-3.073519016E-4
6.34	-2.219326681E-4	-1.133276501E-5	-7.035948196E-4
6.3500000000000005	-3.362454891E-4	-4.281118049E-4	-9.917937607E-4
6.36	-6.042086961E-4	-9.876404258E-6	-9.917937607E-4
6.37	-6.014163191E-4	2.537030069E-4	-9.917937607E-4
6.38	-6.014163191E-4	9.644758194E-4	-9.917937607E-4
6.390000000000001	-6.014163191E-4	1.198695911E-3	-2.636969650E-4
6.4	-1.329374345E-3	4.480170900E-4	-2.225686782E-3
6.41	-2.291430457E-3	1.858264173E-4	-1.468711733E-3
6.42	-2.867178807E-4	1.809846098E-4	-9.917937607E-4
6.43	-1.100465560E-3	9.150551201E-4	-9.917937607E-4
6.44	-2.801486723E-5	3.586817991E-4	-2.272921252E-4
6.45	1.154704480E-3	8.892291925E-4	-7.836671741E-4
6.46	-1.915342476E-4	3.119509761E-4	-9.917937607E-4
6.47	-1.361743696E-3	1.659663702E-3	-2.054180056E-4
6.48	1.160113082E-5	4.536715575E-4	-1.179393529E-5
6.49	3.785836692E-4	8.655461713E-4	-8.127004105E-4
6.5	3.703358878E-4	1.816277343E-3	6.247741699E-4
6.51	3.685836862E-4	1.157101375E-3	1.526449540E-4
6.5200000000000005	-4.457033815E-4	9.741951771E-4	8.108880061E-4
6.53	2.200223344E-4	9.540476771E-4	1.382990063E-4
6.54	-1.280362969E-3	9.424407967E-4	-2.532204378E-3
6.55	1.190889424E-4	9.237486423E-4	-4.194910578E-4
6.5600000000000005	-4.458440705E-4	6.917290889E-5	-1.179393529E-5
6.57	-1.413078655E-3	-5.901539000E-5	-8.709908361E-4
6.58	-6.650864799E-4	-5.901539000E-5	-9.917937607E-4
6.59	-5.425009828E-4	-5.901539000E-5	-9.917937607E-4
6.6000000000000005	3.214353745E-4	-6.800342372E-5	-9.917937607E-4
6.61	-4.424285329E-4	-9.572174130E-4	-1.035918272E-4
6.62	3.457755319E-4	-1.039877915E-3	-1.179393529E-5
6.63	4.193722741E-4	-1.029803952E-3	-1.179393529E-5
6.640000000000001	-4.728124721E-4	-1.190484400E-4	-9.217607144E-4
6.65	3.572234726E-4	-9.570159966E-4	-7.443246317E-5
6.66	-4.871678518E-4	-1.009580470E-3	9.128276435E-4
6.67	3.809463182E-4	-9.995065055E-4	9.682062626E-4
6.68	4.190007967E-4	-9.990153997E-4	2.908444546E-5
6.69	-5.084743641E-4	-9.893584712E-4	-9.581655578E-4
6.7	4.026233284E-4	-9.890153236E-4	-9.917937607E-4
6.71	-2.425075746E-3	-9.792089501E-4	-2.913846626E-3
6.72	-2.471535844E-3	-9.790153406E-4	-2.951794156E-3
6.73	4.452087662E-4	-9.690610057E-4	-1.000740815E-3
6.74	4.485553337E-4	-1.936210319E-3	-1.966240677E-3
6.75	4.287616003E-4	-9.490153915E-4	-1.179393529E-5
6.76	-4.873914480E-4	-9.488390972E-4	-2.907080841E-5
6.7700000000000005	1.383552185E-3	-9.873260791E-4	-9.917937607E-4
6.78	3.773089490E-4	-2.805162796E-3	-1.023720063E-3
6.79	-5.514163109E-4	-9.472520956E-4	-1.893727306E-3
6.8	-5.504687275E-4	-1.868541621E-3	-1.046570566E-4
6.8100000000000005	-5.314162983E-4	-1.911601598E-3	-1.971793959E-3
6.82	-5.314162983E-4	-2.756839987E-3	-1.910862149E-3
6.83	-5.307204557E-4	-1.749430929E-3	-8.554083686E-4
6.84	-5.206450239E-4	-8.190153330E-4	8.170335941E-4
6.8500000000000005	-5.114162857E-4	-8.190153330E-4	-1.074630187E-3
6.86	-5.104970366E-4	-9.072634045E-4	-1.881707372E-3
6.87	-5.014163027E-4	-1.778022149E-3	-8.944571311E-4
6.88	-5.014163027E-4	-1.663361380E-3	-1.163807208E-4
6.890000000000001	-5.002751120E-4	-8.897110952E-4	-8.799568969E-4
6.9	-4.889855877E-4	-1.747800044E-3	-1.308997075E-4
6.91	-4.714163071E-4	-1.736433807E-3	-9.917937607E-4
6.92	-4.700516003E-4	-1.714921174E-3	-7.243107639E-4
6.93	-3.233020545E-4	-1.687576657E-3	5.452312796E-4
6.94	4.970710067E-4	-1.530773627E-3	-1.971793959E-3
6.95	3.362651101E-4	-6.990153506E-4	-1.816302041E-3
6.96	-4.714163071E-4	-6.990153506E-4	-9.917937607E-4
6.97	-1.345960024E-4	-6.990153506E-4	-1.161940142E-3
6.98	9.418246436E-4	-6.990153506E-4	-1.617000961E-3
6.99	-1.075948972E-3	-6.990153506E-4	-1.179393529E-5
7.0	3.087679213E-4	-6.990153506E-4	-3.953391812E-4
7.01	-4.693842002E-4	-6.969832436E-4	-1.573500313E-3
7.0200000000000005	-4.635224120E-4	-6.890153675E-4	-2.181908659E-4
7.03	-2.599160450E-4	-6.868349561E-4	-1.205474485E-3
7.04	2.820434954E-4	-4.624752076E-4	-1.750742480E-3
7.05	-2.354443579E-4	5.501263940E-5	-1.448397009E-3
7.0600000000000005	5.061800735E-4	-6.890153675E-4	-2.480690721E-3
7.07	7.364303378E-4	-6.890153675E-4	-1.234595623E-3
7.08	1.205980183E-3	-6.890153675E-4	-1.721742001E-3
7.09	2.139071661E-4	-4.369643871E-4	-1.766325444E-3
7.1000000000000005	-5.014163027E-4	5.301784954E-4	-3.674500165E-3
7.11	-4.986412409E-4	9.562529714E-4	-2.679837581E-3
7.12	-4.885672637E-4	-3.822204402E-5	-1.971793959E-3
7.13	-7.678730371E-4	-1.748709514E-4	-1.398880437E-3
7.140000000000001	-1.167709370E-3	1.475700436E-3	-3.055007783E-4
7.15	-1.866012902E-4	1.241184531E-3	-1.292750815E-3
7.16	4.785836623E-4	-1.820360406E-4	-1.971793959E-3
7.17	-1.459911504E-4	1.446833091E-3	-2.602807601E-3
7.18	-1.458121755E-3	1.761533955E-3	-4.257949843E-3
7.19	-1.121304542E-3	1.414359372E-3	-3.928090258E-3
7.2	-1.409393991E-4	2.040657185E-3	-2.309155871E-3
7.21	8.261627547E-4	1.672856108E-3	-2.607182110E-3
7.22	4.001783031E-4	6.827129518E-4	-1.268069789E-3
7.23	-1.112247502E-3	7.646621779E-4	-3.709626370E-4
7.24	-1.286397037E-4	1.251691374E-3	-1.358310423E-3
7.25	-2.651357416E-4	3.933094611E-4	-1.971793959E-3
7.26	-1.463640398E-3	1.350337657E-3	-2.352810859E-3
7.2700000000000005	-1.063149355E-3	1.538755779E-3	-2.951794156E-3
7.28	-8.800692589E-5	9.369486829E-4	-2.160759879E-3
7.29	4.744731534E-4	9.227635636E-4	-1.797455034E-3
7.3	4.685836793E-4	9.026137427E-4	-2.131450903E-3
7.3100000000000005	5.542142224E-5	4.735629115E-4	-1.826637268E-3
7.32	-4.970829246E-4	7.429946428E-4	-3.376465700E-3
7.33	-9.189308298E-4	9.715481849E-4	-4.368123042E-3
7.34	-1.452453576E-3	-5.581873726E-4	-3.160624463E-3
7.3500000000000005	-1.874172389E-3	-1.094460003E-3	-1.438215991E-3
7.36	-1.034815326E-3	-1.089015340E-3	-1.518050214E-3
7.37	8.221191691E-5	-1.089015340E-3	-9.917937607E-4
7.38	-4.266374457E-4	-1.084236504E-3	-1.460120606E-3
7.390000000000001	4.445489505E-5	-1.074162540E-3	-1.971793959E-3
7.4	5.336568559E-4	-1.069015374E-3	-1.971793959E-3
7.41	4.850816361E-5	-1.059013771E-3	-1.971793959E-3
7.42	-4.314162819E-4	-1.049015315E-3	-2.469199601E-3
7.43	-9.309975477E-4	-1.049015315E-3	-2.447062457E-3
7.44	-8.946588593E-4	-1.049015315E-3	-2.483775779E-3
7.45	-4.261180069E-4	-1.049015315E-3	-1.913330281E-3
7.46	9.969338076E-5	-1.049015315E-3	-1.518275821E-3
7.47	5.431374214E-4	-1.043569078E-3	-1.971793959E-3
7.48	8.641941640E-6	-1.033495115E-3	-1.430811658E-3
7.49	-9.640543853E-4	-1.023421151E-3	-1.540026175E-3
7.5	-8.415155214E-4	-1.013346295E-3	-1.416223996E-3
7.51	6.871260430E-4	-1.009015383E-3	-1.554680678E-3
7.5200000000000005	9.384467415E-4	-1.567516876E-3	-1.971793959E-3
7.53	-6.202987031E-4	-1.963123624E-3	-3.126567835E-3
7.54	-8.367791664E-4	-1.947083909E-3	-3.347156786E-3
7.55	1.323519495E-4	-1.926935981E-3	-1.768019362E-3
7.5600000000000005	5.085836579E-4	-2.506017874E-3	-2.190257479E-3
7.57	-9.176889004E-5	-2.260095222E-3	-2.345252273E-3
7.58	1.335860291E-4	-1.866489051E-3	-1.971793959E-3
7.59	-7.344887986E-4	-1.846341006E-3	-1.971793959E-3
7.6000000000000005	-1.441416289E-3	-1.826193010E-3	-1.343501704E-3
7.61	-8.058740803E-4	-1.806045083E-3	-9.917937607E-4
7.62	1.749170535E-4	-2.422228499E-3	-9.917937607E-4
7.63	-7.785404787E-4	-1.448621910E-3	-2.292187505E-3
7.640000000000001	-1.424707676E-3	-1.446462234E-3	-4.273396362E-3
7.65	-7.567193376E-4	-1.097535799E-3	-2.920920409E-3
7.66	-4.414163115E-4	-7.858719921E-4	-6.278997871E-4
7.67	-4.344846165E-4	-7.820837211E-4	-6.910979210E-4
7.68	-1.104005595E-3	-1.458610873E-3	-9.917937607E-4
7.69	-7.046447243E-4	-1.055163667E-3	-2.379497418E-3
7.7	-1.115364013E-3	-7.618612366E-4	-2.951794156E-3
7.71	-6.758362800E-4	-7.590153418E-4	-1.535090022E-3
7.72	-4.014162863E-4	-7.590153418E-4	-1.707395970E-3
7.73	-1.824992464E-3	-7.590153418E-4	-2.694646264E-3
7.74	-1.560094633E-4	-7.590153418E-4	-1.491589259E-3
7.75	5.735332744E-4	-7.590153418E-4	-9.917937607E-4
7.76	-1.685735132E-4	-7.514157958E-4	-9.917937607E-4
7.7700000000000005	-3.937427594E-4	-7.413418318E-4	-9.917937607E-4
7.78	-3.914163033E-4	-7.390153757E-4	-2.510308079E-3
7.79	-3.914163033E-4	-7.390153757E-4	-2.951794156E-3
7.8	3.745981536E-4	-7.390153757E-4	-3.725705252E-3
7.8100000000000005	5.706126182E-4	-7.390153757E-4	-2.369470655E-3
7.82	-9.921498146E-4	3.330634243E-5	-1.971793959E-3
7.83	2.117883853E-4	-5.665582178E-4	-2.767455971E-3
7.84	5.785836787E-4	3.751065379E-5	-1.345969830E-3
7.8500000000000005	5.703153923E-4	2.027163478E-4	-1.802083597E-3
7.86	1.361122542E-3	2.009846107E-4	-1.154227331E-3
7.87	-1.226330301E-4	1.008968193E-3	-9.917937607E-4
7.88	-4.314162819E-4	3.119369507E-4	-1.823860627E-3
7.890000000000001	3.822071700E-4	9.917370068E-4	-1.971793959E-3
7.9	2.185802184E-3	1.951636207E-3	-1.125226854E-3
7.91	-9.492597990E-4	3.646380122E-4	-1.845611021E-3
7.92	-1.425052967E-3	9.546118255E-4	-2.493883966E-4
7.930000000000001	-5.440827876E-4	2.763617870E-3	-8.802653250E-4
7.94	-4.314162819E-4	1.211669281E-3	-9.917937607E-4
7.95	-1.314388030E-3	9.919746548E-4	-5.415662277E-3
7.96	-2.283470347E-3	9.728168088E-4	-2.331822261E-3
7.97	-1.455628535E-3	1.840982875E-3	-1.971793959E-3
7.98	-4.665517440E-4	2.788915869E-3	-1.971793959E-3
7.99	-3.914163033E-4	1.339123726E-4	-1.971793959E-3
8.0	-1.301411475E-3	1.741593656E-3	-3.810546883E-3
8.01	-4.347895061E-4	9.249024267E-4	-2.078540364E-3
8.02	-1.305763764E-3	8.519258667E-4	-1.037916908E-3
8.03	-4.102892871E-4	8.317779362E-4	-3.815174689E-3
8.040000000000001	-1.300438753E-3	-9.803784979E-5	-2.983417042E-3
8.05	-1.321663473E-3	8.072566035E-4	-2.951794156E-3
8.06	-1.301762542E-3	-1.075424968E-3	-2.951794156E-3
8.07	-1.291515431E-3	8.018454964E-4	-2.951794156E-3
8.08	-3.238592462E-4	8.110097838E-4	-3.929325485E-3
8.09	6.338505217E-4	-1.139015348E-3	-9.965757053E-4
8.1	-3.193842023E-4	-1.138892572E-3	-1.995858175E-3
8.11	6.294952265E-4	-1.128818578E-3	-3.873937967E-3
8.120000000000001	-3.475582383E-4	-1.092601137E-3	-1.018480323E-3
8.13	-1.213889134E-3	-1.822595125E-4	-1.903920516E-3
8.14	7.085096415E-4	-1.108595123E-3	-5.298072153E-5
8.15	1.521709814E-3	-1.099015323E-3	-1.088667693E-3
8.16	-5.067726757E-4	-1.098447089E-3	-2.896107115E-3
8.17	-3.186552357E-3	-1.088373125E-3	-1.971793959E-3
8.18	-2.171217927E-3	-1.078299049E-3	-2.041992286E-3
8.19	-1.260624558E-3	-1.068223624E-3	-3.106977416E-3
8.2	-1.166574442E-3	-1.057283920E-3	-4.487584805E-3
8.21	-1.812038457E-4	-1.038075620E-3	-1.959776982E-4
8.22	5.922827235E-4	-1.028001656E-3	-1.971793959E-3
8.23	-3.669207527E-4	-1.019015366E-3	-2.078386097E-3
8.24	-1.117574004E-3	-1.130534333E-3	-3.065636366E-3
8.25	-2.514163083E-4	-1.857903998E-3	-4.052905045E-3
8.26	-5.057873880E-4	-9.977041986E-4	-4.654800392E-3
8.27	-2.054284263E-3	-9.890153236E-4	-3.087540965E-3
8.28	-1.201416324E-3	-1.127634828E-3	-3.502802730E-3
8.290000000000001	-9.039883509E-4	-1.788768186E-3	-9.917937607E-4
8.3	5.826935958E-4	-1.113298342E-3	-1.149290996E-3
8.31	-2.314163190E-4	-2.082107271E-3	-2.136567292E-3
8.32	-4.035680476E-4	-2.715106976E-3	-3.123945791E-3
8.33	-1.032014492E-3	-1.717782914E-3	-3.572990039E-3
8.34	1.361737605E-4	-1.091858117E-3	-1.971793959E-3
8.35	1.118856049E-3	-2.060938842E-3	-2.359597997E-3
8.36	-1.030264079E-3	-2.633757910E-3	-3.931793609E-3
8.370000000000001	-2.514163083E-4	-1.630580205E-3	-3.931793609E-3
8.38	-4.001385922E-5	-1.070417797E-3	-3.715987063E-3
8.39	7.063075941E-4	-2.037519953E-3	-2.951794156E-3
8.4	4.706268374E-4	-2.544008317E-3	-2.491180256E-3
8.41	-3.870735883E-5	-1.539034281E-3	-1.229350856E-3
8.42	4.462745740E-4	-7.890153839E-4	-1.237372481E-3
8.43	-3.450305926E-5	-7.890153839E-4	4.640916905E-4
8.44	4.218818821E-4	-7.890153839E-4	-9.917937607E-4
8.45	-2.886947600E-4	-7.862938400E-4	-7.250820544E-4
8.46	5.292872625E-4	-7.790154009E-4	-8.336796790E-4
8.47	2.056159718E-3	-7.790154009E-4	-2.951794156E-3
8.48	8.754641664E-5	-7.790154009E-4	-2.663331969E-3
8.49	-9.857040647E-4	-7.790154009E-4	-1.971793959E-3
8.5	-1.545410047E-6	-7.790154009E-4	-1.668831533E-3
8.51	5.439296859E-5	-7.758494453E-4	-1.922577570E-3
8.52	-1.268175316E-3	-7.690153248E-4	-3.931793609E-3
8.53	-9.365493361E-4	-7.723303192E-4	-3.606926815E-3
8.540000000000001	-6.101444097E-4	-4.502872715E-4	-2.951794156E-3
8.55	-1.583857605E-3	-1.449196777E-4	-2.951794156E-3
8.56	-1.521718578E-3	-7.790154009E-4	-3.298411277E-3
8.57	-6.152837400E-4	-7.790154009E-4	-3.577926360E-3
8.58	-5.227529610E-4	-6.403755219E-5	-2.951794156E-3
8.59	7.010628303E-4	7.849417973E-4	-2.214750153E-3
8.6	-5.145718504E-5	5.329222594E-4	-9.917937607E-4
8.61	-1.237507874E-3	7.479624477E-4	-1.374816002E-3
8.620000000000001	-1.227433910E-3	1.509846083E-4	-2.752338405E-3
8.63	-8.238938941E-4	1.469282571E-4	-3.931793609E-3
8.64	1.551579953E-4	5.375589003E-4	-3.122121209E-3
8.65	3.106126645E-4	1.504749721E-3	-2.383970945E-3
8.66	-2.514163083E-4	2.048144957E-3	-3.371220936E-3
8.67	-2.427086163E-4	1.181984109E-3	-3.078439484E-3
8.68	1.936552630E-4	5.016283691E-4	-2.405721297E-3
8.69	2.919081110E-4	1.021980993E-3	-2.510616693E-3
8.700000000000001	-6.898437845E-4	1.001833023E-3	-2.420221537E-3
8.71	-1.216766527E-3	9.863348089E-4	-3.407471512E-3
8.72	-7.436912338E-4	9.715356142E-4	-4.394794283E-3
8.73	-6.917484192E-4	1.416918744E-3	-4.441461611E-3
8.74	-7.287073892E-4	1.896364661E-3	-3.454211655E-3
8.75	2.484687526E-4	1.391204947E-3	-2.466961721E-3
8.76	1.215602355E-3	1.368003295E-3	-1.479711403E-3
8.77	2.058716278E-4	1.331461571E-3	-4.924612751E-4
8.78	2.882310041E-4	8.358145781E-4	-1.025118884E-3
8.790000000000001	6.758542767E-4	8.204950729E-4	-4.298326421E-4
8.8	-1.283253196E-3	8.056658612E-4	-2.159216900E-3
8.81	-1.662929011E-3	7.901991540E-4	-3.326331982E-3
8.82	-1.205949608E-3	2.507138971E-4	-1.436056426E-3
8.83	-2.265396121E-3	-1.890153787E-4	-9.917937607E-4
8.84	-2.015016208E-3	-7.337910116E-4	-1.542185785E-3
8.85	-5.937742719E-4	-1.153325099E-3	-1.414151808E-3
8.86	-1.848800129E-3	-3.652368878E-5	-1.556686023E-3
8.870000000000001	-1.364989481E-3	7.751463996E-4	-1.399651569E-3
8.88	-1.414163089E-4	-3.818879955E-4	-4.124014801E-4
8.89	-1.474024608E-4	-1.173029235E-3	-1.179393529E-5
8.9	-1.453552283E-4	-1.156893188E-3	-1.199766242E-3
8.91	-1.475519964E-4	-1.136743985E-3	-1.370496842E-3
8.92	-1.514163152E-4	-1.129015365E-3	-3.832467447E-4
8.93	4.455299455E-4	-1.116448096E-3	6.040034192E-4
8.94	1.818939369E-4	-1.096300109E-3	1.591253513E-3
8.950000000000001	-1.714163045E-4	-1.082583744E-3	6.876111420E-4
8.96	-1.714163045E-4	-1.072509780E-3	-6.493414197E-4
8.97	-1.779958770E-4	-1.069015374E-3	-3.469961747E-4
8.98	-1.747617101E-4	-1.062360789E-3	1.292506989E-3
8.99	-8.241393681E-4	-1.045557143E-3	1.288753994E-3
9.0	-1.134613167E-3	-1.032212259E-3	3.015038162E-4
9.01	1.960662513E-4	-1.682439462E-3	6.622647157E-4
9.02	1.172268472E-4	-1.283753297E-3	9.682062626E-4
9.03	-1.814163108E-4	-2.335149369E-3	2.795992009E-4
9.040000000000001	-1.814163108E-4	-2.198957112E-3	1.379920203E-3
9.05	-8.773489098E-4	-1.198733627E-3	5.419917552E-4
9.06	-4.410590098E-4	-2.310735701E-3	-1.179393529E-5
9.07	-8.817011263E-4	-2.817047718E-3	1.423420869E-3
9.08	-1.836797234E-3	-2.779424677E-3	1.948206088E-3
9.09	-2.066472224E-3	-2.021809358E-3	4.836822485E-4
9.1	-2.046324157E-3	-1.746377171E-3	1.467230091E-3
9.11	-1.279414098E-3	-1.723775242E-3	4.546817745E-4
9.120000000000001	-2.950980754E-4	-1.695933326E-3	1.496230562E-3
9.13	-7.141631141E-5	-2.434741798E-3	4.256813005E-4
9.14	-8.322066179E-4	-3.378432827E-3	1.525473085E-3
9.15	-1.025583723E-3	-2.003676953E-3	1.948206088E-3
9.16	-2.463935150E-4	-1.581025417E-3	1.165193517E-3
9.17	-8.256731601E-4	-1.554819859E-3	1.758593352E-3
9.18	-1.003278108E-3	-7.514737306E-4	1.150664573E-3
9.19	-9.849899980E-4	-5.690153851E-4	9.682062626E-4
9.200000000000001	-2.564314088E-3	-5.690153851E-4	9.682062626E-4
9.21	-4.411392258E-4	-5.690153851E-4	9.682062626E-4
9.22	-7.798012907E-4	-1.387400383E-3	1.413841634E-4
9.23	-1.748337853E-3	-7.050745889E-4	-1.179393529E-5
9.24	-2.174003505E-4	-5.590153555E-4	1.670806742E-3
9.25	5.858368312E-5	-5.590153555E-4	2.796778419E-3
9.26	8.969402762E-4	-5.590153555E-4	1.216561436E-3
9.27	1.465670403E-4	-5.502071216E-4	9.682062626E-4
9.28	-8.241284162E-4	-5.401329699E-4	1.838683042E-3
9.290000000000001	-1.800050191E-3	-5.390153895E-4	1.930282264E-4
9.3	-1.007423814E-3	3.278863728E-4	-8.967559942E-4
9.31	-2.829342205E-5	-4.621382637E-4	1.684887849E-3
9.32	-2.603135192E-3	-5.490153725E-4	1.048728840E-3
9.33	-1.018709036E-3	-5.582676781E-4	6.147859487E-5
9.34	-8.620899526E-4	3.363096402E-4	-1.179393529E-5
9.35	4.115295296E-5	1.303553866E-3	-9.331665671E-4
9.36	9.858367920E-5	4.228766678E-4	-6.316183062E-5
9.370000000000001	9.858367920E-5	3.709846013E-4	-1.179393529E-5
9.38	8.895988505E-5	3.613607960E-4	1.874470749E-3
9.39	-8.424032596E-4	3.609845950E-4	-9.029412501E-4
9.4	-1.809505233E-3	1.289301872E-3	-3.416136503E-5
9.41	-1.811721636E-3	1.281442671E-3	-1.179393529E-5
9.42	-1.781652379E-3	-6.437469947E-4	9.604933691E-4
9.43	-7.918838213E-4	-6.490201116E-4	-1.133111237E-5
9.44	-2.704490319E-3	2.234058637E-3	-1.858127830E-5
9.450000000000001	-1.697378790E-3	1.226803961E-3	-9.777563492E-4
9.46	-7.311990305E-4	2.509846073E-4	-3.308486349E-5
9.47	-6.930171220E-4	2.506918324E-4	-9.631018107E-4
9.48	1.777998949E-4	2.761931280E-4	-4.773595595E-5
9.49	-1.595472613E-3	1.115040946E-3	-1.034985960E-3
9.5	3.185112146E-4	-7.490153587E-4	-1.921351684E-3
9.51	1.066683754E-3	-6.925003314E-4	-9.341013451E-4
9.52	-1.680090899E-3	1.473674642E-4	-1.179393529E-5
9.53	-1.660679513E-3	-7.482785842E-4	-2.284060423E-4
9.540000000000001	-1.493034447E-3	-7.390153757E-4	-2.792600051E-3
9.55	1.266618502E-4	-7.381291822E-4	-9.917937607E-4
9.56	-1.455142129E-3	-7.290153927E-4	-9.917937607E-4
9.57	1.982704965E-4	-7.279812378E-4	-9.917937607E-4
9.58	-5.650350642E-4	-7.190154097E-4	-1.100391290E-3
9.59	2.885836824E-4	-7.178332825E-4	-1.855946348E-3
9.6	-7.825510840E-5	-7.090153336E-4	-1.114910914E-3
9.61	-2.496919241E-3	-7.076836816E-4	-1.710789719E-3
9.620000000000001	-1.756357267E-3	-6.976097182E-4	-2.872983398E-4
9.63	-2.147888786E-3	-6.875357542E-4	-1.826791575E-3
9.64	4.992825156E-4	-6.790153845E-4	-9.917937607E-4
9.65	1.315328514E-3	-8.352628262E-4	-9.917937607E-4
9.66	9.667276266E-4	-1.473938325E-3	-1.158572712E-3
9.67	-6.496391710E-4	-6.690153549E-4	-1.623479853E-3
9.68	-4.637112899E-4	-1.026276461E-3	-1.932011030E-4
9.69	-5.295564763E-5	-2.593240076E-3	-8.031365069E-4
9.700000000000001	-1.223599453E-3	-2.565017236E-3	-4.036088108E-4
9.71	1.295722322E-4	-2.343784815E-3	-2.378108935E-3
9.72	-4.231556648E-4	-1.348607706E-3	-3.510978343E-3
9.73	1.253679119E-4	-5.812363619E-4	-1.971793959E-3
9.74	-6.191209490E-4	-1.032015955E-3	-1.746850588E-3
9.75	-6.114163021E-4	-2.514274180E-3	-9.917937607E-4
9.76	-3.791874775E-4	-2.970806452E-3	-1.231356183E-3
9.77	9.680815235E-5	-3.686059157E-3	-1.971793959E-3
9.78	-6.214162851E-4	-1.979363144E-3	-1.971793959E-3
9.790000000000001	-8.827701677E-4	-2.883640692E-3	-1.971793959E-3
9.8	-1.329957091E-3	-1.702248396E-3	-2.240511141E-3
9.81	-6.114163021E-4	-2.396199269E-3	-2.675826877E-3
9.82	-3.310889171E-4	-2.663562736E-3	-1.405359225E-3
9.83	3.556197244E-4	-3.039656026E-3	-3.022613445E-4
9.84	5.390402209E-5	-2.915336735E-3	-1.587229078E-3
9.85	-3.226724327E-4	-4.246567624E-3	-2.341858638E-3
9.86	3.385836673E-4	-3.588207874E-3	-9.917937607E-4
9.870000000000001	1.906546612E-5	-2.552012729E-3	-1.311312038E-3
9.88	-6.414162977E-4	-2.865472097E-3	-1.971793959E-3
9.89	-9.721292922E-4	-2.188787126E-3	-1.637671446E-3
9.9	-2.283711128E-3	-2.165531887E-3	-1.333166377E-3
9.91	-2.491990856E-3	-1.458212588E-3	-1.971793959E-3
9.92	-9.437131485E-4	-8.899771764E-4	-1.615865095E-3
9.93	-1.194432203E-3	-2.104187677E-3	-1.355070995E-3
9.94	-2.046699008E-4	-1.704707097E-3	-2.342321325E-3
9.950000000000001	3.947287937E-4	-1.085160475E-3	-2.951794156E-3
9.96	7.696823245E-4	-1.071157666E-3	-2.566766552E-3
9.97	5.820340410E-4	-6.667377518E-4	-2.364071672E-3
9.98	-9.768672473E-4	-7.901537931E-5	-2.951794156E-3
9.99	-1.140487625E-3	-7.901537931E-5	-2.545016203E-3
10.0	-9.670585912E-4	-7.478994076E-5	-2.799980209E-3
10.01	-1.934247938E-3	-6.901538466E-5	-3.510361472E-3
10.02	-1.619676957E-3	-6.901538466E-5	-2.951794156E-3
10.03	-8.438028243E-5	-6.901538466E-5	-3.387726521E-3
10.040000000000001	4.485836667E-4	-6.901538466E-5	-3.045428325E-3
10.05	8.944202700E-4	-6.901538466E-5	-2.422226893E-3
10.06	5.077446907E-4	-6.901538466E-5	-2.494039076E-3
10.07	-5.266705173E-4	-6.426959807E-5	-1.971793959E-3
10.08	-5.871840111E-5	-5.901539000E-5	-1.499456409E-3
10.09	4.336899185E-4	-5.901539000E-5	-9.917937607E-4
10.1	9.154213267E-4	-5.901539000E-5	-1.965469337E-3
10.11	4.304914693E-4	4.249890046E-4	-1.464488823E-3
10.120000000000001	-5.263006139E-4	4.098780818E-4	-1.510923435E-3
10.13	-5.162258093E-4	-5.901539000E-5	-1.420599203E-3
10.14	-5.114162857E-4	-5.901539000E-5	-1.793766017E-6
10.15	-5.060770853E-4	-5.367617709E-5	-5.250364079E-4
10.16	-5.014163027E-4	4.706508930E-4	-2.048192574E-3
10.17	-1.028267662E-3	3.841332305E-4	-2.413966592E-3
10.18	-3.768553781E-4	4.849222928E-4	-1.971793959E-3
10.19	-5.802417222E-5	3.700118743E-4	-2.524037077E-3
10.200000000000001	-1.023782090E-3	1.052843501E-3	-2.392300912E-3
10.21	-8.587998105E-4	7.531036058E-4	-1.971793959E-3
10.22	1.268726467E-4	-6.901538466E-5	-3.120088990E-3
10.23	-4.094878594E-5	-6.308275778E-5	-2.763065596E-3
10.24	1.513166768E-4	-5.300782954E-5	-2.556542121E-3
10.25	-5.129354991E-5	5.347806497E-4	-4.143710847E-3
10.26	-1.613280232E-3	9.109846153E-4	-1.889422875E-3
10.27	-1.124081218E-3	3.128924062E-4	-6.123463534E-4
10.28	-3.814162970E-4	-4.901538371E-5	-2.841798315E-3
10.290000000000001	-3.750376493E-4	-4.263672851E-5	-3.300306648E-3
10.3	-3.649642402E-4	-3.901538905E-5	-2.941793987E-3
10.31	-3.548892255E-4	-4.554246365E-5	-3.587974471E-3
10.32	-3.514163014E-4	-4.901538371E-5	-3.931793609E-3
10.33	2.961155295E-4	-4.233980110E-5	-3.270910831E-3
10.34	6.253332441E-4	-3.226581801E-5	-2.941793987E-3
10.35	-7.020081239E-4	-2.901538276E-5	-3.617324959E-3
10.36	2.381353775E-5	-2.901538276E-5	-3.248831024E-3
10.370000000000001	-4.083230262E-5	-2.204230325E-5	-2.941793987E-3
10.38	-1.698546682E-3	-1.901538810E-5	-3.632405896E-3
10.39	-8.685704492E-4	-2.613642911E-5	-3.223931438E-3
10.4	3.965011761E-4	-2.901538276E-5	-2.236681313E-3
10.41	6.540456436E-4	-3.628439373E-5	-2.674156561E-3
10.42	6.485836529E-4	-7.513972625E-4	-2.941793987E-3
10.43	-7.090163117E-5	-2.746953233E-4	-3.676113770E-3
10.44	-1.040547395E-3	-1.472259404E-3	-3.190189938E-3
10.450000000000001	-5.323703335E-4	-1.209969364E-3	-3.683273422E-3
10.46	-2.914163102E-4	-9.613748861E-4	-3.173026384E-3
10.47	-1.039719467E-3	-1.699604025E-3	-4.461543550E-3
10.48	-4.903601465E-4	-3.414396887E-3	-3.377470083E-3
10.49	-2.714162976E-4	-2.274146021E-3	-3.712432676E-3
10.5	-1.033462546E-3	-1.063155125E-3	-3.143871643E-3
10.51	1.885237048E-3	-2.405324096E-3	-3.726965869E-3
10.52	1.065652791E-3	-2.764757550E-3	-3.921793440E-3
10.53	6.722638198E-4	-1.943023005E-3	-2.322448614E-3
10.540000000000001	-1.301051195E-4	-1.734313586E-3	-1.154871228E-3
10.55	-1.107281207E-3	-2.526572335E-3	-3.424311901E-3
10.56	-4.414808995E-4	-2.663865808E-3	-2.278689298E-3
10.57	5.388244252E-4	-2.633646989E-3	-1.961793789E-3
10.58	1.507576072E-3	-2.611952926E-3	-2.797848695E-3
10.59	-8.641882002E-4	-1.748476970E-3	-3.785121071E-3
10.6	4.210595659E-4	-1.591656597E-3	-5.631628568E-3
10.61	-1.617374120E-4	-2.429336471E-3	-4.167384582E-3
10.620000000000001	-1.137801637E-3	-1.666143858E-3	-4.795836585E-3
10.63	-3.611282927E-4	-1.540112532E-3	-1.412962075E-3
10.64	1.481117859E-3	-1.521061554E-3	-1.861526212E-3
10.65	7.916011746E-4	-2.378845276E-3	-3.735758440E-3
10.66	6.894588538E-4	-1.556533057E-3	-4.825151240E-3
10.67	6.885836781E-4	-1.450617771E-3	-3.099629732E-3
10.68	6.793108662E-4	-1.439742525E-3	-2.033060925E-3
10.69	-1.134974252E-3	3.745425532E-4	-2.877921178E-3
10.700000000000001	5.759360179E-4	-4.035580759E-4	-2.941793987E-3
10.71	-1.144202340E-3	-4.495190567E-4	-2.941793987E-3
10.72	-3.035287472E-4	-4.490153561E-4	-4.827139226E-3
10.73	-2.614163146E-4	-4.297268638E-4	-4.911793807E-3
10.74	-1.213804058E-3	5.136541499E-4	-2.997300139E-3
10.75	-2.719861178E-4	5.409845919E-4	-2.941793987E-3
10.76	-2.514163083E-4	-4.161879344E-4	-3.908833749E-3
10.77	-2.414745428E-4	5.353352439E-4	-3.921793440E-3
10.78	-1.218331134E-3	5.409845919E-4	-4.901793638E-3
10.790000000000001	7.298807597E-4	5.409845919E-4	-4.884208346E-3
10.8	-2.155372075E-4	5.408208900E-4	-2.957836792E-3
10.81	6.924732825E-4	5.309846089E-4	-3.945086329E-3
10.82	-1.201104609E-3	5.309846089E-4	-4.840697931E-3
10.83	-1.153081607E-3	5.309846089E-4	-2.941793987E-3
10.84	-2.009551014E-4	5.305234086E-4	-2.941793987E-3
10.85	-1.914163055E-4	5.215197611E-4	-3.046689288E-3
10.86	-1.323277336E-4	5.309846089E-4	-4.842095892E-3
10.870000000000001	7.785836649E-4	5.309846089E-4	-3.854845582E-3
10.88	8.512788341E-4	6.051942582E-4	-3.016003594E-3
10.89	1.656148683E-3	1.428549593E-3	-3.921793440E-3
10.9	5.717853158E-4	5.209845793E-4	-4.010645964E-3
10.91	-1.104333100E-3	5.209845793E-4	-4.709588504E-3
10.92	-1.091181890E-4	5.209845793E-4	-3.045146671E-3
10.93	6.479808353E-4	6.304587981E-4	-4.032396283E-3
10.94	-3.380667005E-4	1.488579403E-3	-4.783940637E-3
10.950000000000001	-1.065016746E-3	1.345861847E-3	-4.046916212E-3
10.96	-7.296522018E-5	4.896324694E-4	-4.636778817E-3
10.97	4.719207012E-4	6.178899861E-4	-3.081551497E-3
10.98	-1.333923680E-3	1.439484477E-3	-3.921793440E-3
10.99	-1.683364942E-3	1.278300813E-3	-3.613277849E-3
11.0	6.087238170E-4	4.593365705E-4	-2.123301730E-3
11.01	-3.667563503E-4	4.492623118E-4	-2.773009318E-3
11.02	-8.126865892E-4	6.153494580E-4	-2.137956259E-3
11.03	7.767121118E-4	1.229443639E-3	-2.941793987E-3
11.040000000000001	9.573008195E-4	6.297017319E-4	-2.941793987E-3
11.05	1.346797229E-3	1.213071844E-3	-3.337619432E-3
11.06	-4.065791976E-4	4.309845925E-4	-4.491467901E-3
11.07	-5.485122459E-4	4.309845925E-4	-3.366619901E-3
11.08	1.516644155E-3	4.287427827E-4	-4.682095861E-3
11.09	3.013996995E-4	4.233016210E-4	-3.694726051E-3
11.1	-4.832454400E-4	4.285936006E-4	-3.176111464E-3
11.11	1.260378160E-3	4.209846095E-4	-3.680225824E-3
11.120000000000001	4.486258221E-5	4.184456503E-4	-3.190611693E-3
11.13	2.642865298E-4	4.135975435E-4	-3.409657558E-3
11.14	-6.401539845E-4	4.209846095E-4	-2.488429858E-3
11.15	2.456460127E-4	4.209846095E-4	-3.651182760E-3
11.16	-8.734437155E-4	4.181481527E-4	-3.219766429E-3
11.17	-1.714163045E-4	4.109846032E-4	-3.351348153E-3
11.18	1.150876807E-4	-1.650077719E-4	-2.254266681E-3
11.19	4.949775257E-4	-1.509840085E-3	-2.642070995E-3
11.200000000000001	-1.682839279E-4	-1.178909882E-3	-2.575739816E-3
11.21	-1.614163099E-4	-8.068742577E-4	-2.978975746E-3
11.22	-4.797619232E-4	-1.130823999E-3	-1.625049060E-3
11.23	-1.514950487E-4	-7.811812594E-4	-2.612916242E-3
11.24	1.119757961E-3	-1.412155599E-3	-1.961793789E-3
11.25	-5.012903495E-4	-1.048629753E-3	-2.305171773E-3
11.26	-7.807882598E-4	-3.990153945E-4	-2.941793987E-3
11.27	-5.019908204E-4	-7.532417029E-4	-2.941793987E-3
11.28	-3.847712578E-4	-1.726748296E-3	-2.941793987E-3
11.290000000000001	8.347823092E-4	-1.948880046E-3	-3.314326410E-3
11.3	8.247083454E-4	-1.325140034E-3	-3.542010891E-3
11.31	4.355001350E-4	-1.694200233E-3	-2.554761041E-3
11.32	-1.473930168E-4	-2.647205136E-3	-2.356076865E-3
11.33	-1.455135881E-4	-2.795190452E-3	-2.941793987E-3
11.34	-5.518570216E-4	-1.786060885E-3	-2.533010673E-3
11.35	-2.877104845E-4	-1.204769423E-3	-2.377892690E-3
11.36	8.242628874E-4	-1.190373768E-3	-2.941793987E-3
11.370000000000001	3.966853960E-4	-1.174620607E-3	-3.372481589E-3
11.38	-1.414163089E-4	-1.164546602E-3	-2.607979810E-3
11.39	-1.368735759E-4	-1.149929859E-3	-1.872170130E-3
11.4	3.164756257E-4	-1.134397913E-3	-2.941793987E-3
11.41	1.293662268E-3	-1.124323841E-3	-2.941793987E-3
11.42	8.793252360E-4	-1.109484499E-3	-2.941793987E-3
11.43	-1.365760788E-4	-6.198323107E-4	-2.467451087E-3
11.44	3.404224705E-4	-5.906841235E-4	-2.443462652E-3
11.450000000000001	8.285836731E-4	-1.211526175E-4	-2.452873523E-3
11.46	3.324123944E-4	3.649392616E-4	-2.457965174E-3
11.47	3.468650851E-4	-1.105578128E-3	-3.445212025E-3
11.48	3.131208410E-4	-1.022456773E-3	-2.900446015E-3
11.49	-1.461314520E-4	4.283311489E-4	-2.479710167E-3
11.5	-1.414163089E-4	8.756256402E-4	-2.416617559E-3
11.51	-6.684806516E-4	8.655509463E-4	-1.961793789E-3
11.52	-1.111416291E-3	8.609846071E-4	-3.041459745E-3
11.53	-2.827767953E-5	8.498182225E-4	-3.921793440E-3
11.540000000000001	8.229265132E-4	8.409845945E-4	-2.812988405E-3
11.55	8.071213554E-4	8.409845945E-4	-1.961793789E-3
11.56	7.927785097E-4	8.351794733E-4	-1.392891039E-3
11.57	7.827045459E-4	8.251054821E-4	-9.817939639E-4
11.58	2.130398740E-4	1.398434538E-3	-2.148600152E-3
11.59	1.576710130E-3	1.778928494E-3	-2.941793987E-3
11.6	9.466161816E-4	1.172926981E-3	-2.343736275E-3
11.61	-7.843707919E-4	7.848079877E-4	-1.961793789E-3
11.620000000000001	-5.388584807E-4	7.747339948E-4	-1.961793789E-3
11.63	-7.786706825E-4	1.378239011E-3	-2.581699456E-3
11.64	-4.979035423E-4	1.097471845E-3	-2.941793987E-3
11.65	-1.414163089E-4	7.409845781E-4	-2.307485690E-3
11.66	-1.414163089E-4	1.369449792E-3	-3.244910164E-3
11.67	4.942511967E-4	1.045452433E-3	-3.272883223E-3
11.68	1.461303205E-3	1.353704097E-3	-2.941793987E-3
11.69	4.585270033E-4	1.664215025E-3	-2.941793987E-3
11.700000000000001	-1.577282911E-4	2.311165579E-3	-3.612506628E-3
11.71	-1.514163152E-4	2.590227281E-3	-2.565653982E-3
11.72	-1.444227646E-4	1.881629940E-3	-2.647161456E-3
11.73	-1.343487859E-4	1.580984595E-3	-2.941793987E-3
11.74	-1.242748020E-4	8.668338302E-4	-2.941793987E-3
11.75	-8.285341694E-4	5.809846171E-4	-2.941793987E-3
11.76	-3.870483062E-4	5.809846171E-4	-2.941793987E-3
11.77	-8.357834489E-4	5.883492142E-4	-2.220062103E-3
11.78	1.080772995E-3	5.835456079E-4	-2.690816409E-3
11.790000000000001	1.084798031E-3	5.809846171E-4	-3.678066191E-3
11.8	1.566932395E-3	5.809846171E-4	-3.921793440E-3
11.81	1.040149885E-3	2.067208398E-3	-3.171021007E-3
11.82	8.085837071E-4	9.972037982E-4	-3.699816507E-3
11.83	8.085837071E-4	5.431756893E-4	-2.391247536E-3
11.84	-7.288217927E-4	5.409845919E-4	-4.279728179E-3
11.85	-3.614887416E-4	5.409845919E-4	-3.341938808E-3
11.86	-1.719706843E-3	5.409845919E-4	-2.941793987E-3
11.870000000000001	-5.044543241E-4	5.328781997E-4	-2.941793987E-3
11.88	6.539008396E-4	5.309846089E-4	-2.941793987E-3
11.89	2.791003082E-5	5.227302169E-4	-2.941793987E-3
11.9	-1.414163089E-4	5.209845793E-4	-2.941793987E-3
11.91	6.653343200E-4	-2.941696486E-4	-2.941793987E-3
11.92	8.185836901E-4	3.818172499E-4	-4.603458962E-3
11.93	8.100318395E-4	-2.985462989E-4	-4.063710680E-3
11.94	7.999577958E-4	3.976916368E-4	-3.076461041E-3
11.950000000000001	7.985836310E-4	-1.139382133E-3	-2.941793987E-3
11.96	1.640869163E-3	-1.380241515E-3	-2.941793987E-3
11.97	-8.249705114E-4	-2.219555265E-3	-3.808876765E-3
11.98	-1.152493141E-3	-2.302245733E-3	-3.047322895E-3
11.99	-1.142418924E-3	-1.408280288E-3	-3.823531212E-3
12.0	-2.342858177E-4	-1.290872760E-3	-3.032806061E-3
12.01	7.365310724E-4	-1.279870103E-3	-2.941793987E-3
12.02	-9.607347171E-4	-2.154845674E-3	-2.941793987E-3
12.030000000000001	6.914735581E-4	-1.308983929E-3	-2.031055615E-3
12.040000000000001	1.737347733E-3	-1.229646678E-3	-3.798059106E-3
12.05	-4.275898673E-5	-2.135522408E-3	-4.847186352E-3
12.06	1.694835700E-3	-1.237339025E-3	-3.036508372E-3
12.07	-7.172783467E-5	-2.109581835E-3	-3.881538456E-3
12.08	-1.088889463E-3	-2.129685998E-3	-4.868931491E-3
12.09	7.776313659E-4	-1.164883443E-3	-2.993007580E-3
12.1	-1.232468925E-4	-1.119390009E-3	-2.941793987E-3
12.11	-1.414163089E-4	-2.068284716E-3	-1.972747871E-3
12.120000000000001	-1.513785378E-4	-2.059090830E-3	-2.938091798E-3
12.13	8.085475040E-4	-1.068942968E-3	-1.961793789E-3
12.14	7.878957682E-4	-1.048905131E-3	-1.961793789E-3
12.15	-1.712321401E-4	-1.038647003E-3	-1.961793789E-3
12.16	-1.115941819E-4	-9.934589374E-4	-1.961793789E-3
12.17	1.704141063E-3	-2.868320460E-5	-1.961793789E-3
12.18	-1.714163045E-4	-1.901538810E-5	-1.961793789E-3
12.19	-1.709346426E-4	-6.525495534E-5	-1.961793789E-3
12.200000000000001	-1.614163099E-4	-1.031801379E-3	-1.961793789E-3
12.21	-1.614163099E-4	-1.745165177E-3	-2.085200026E-3
12.22	-9.387031774E-5	9.902809696E-4	-3.852840274E-3
12.23	7.978060469E-4	9.809845895E-4	-2.941793987E-3
12.24	7.877320837E-4	9.801330253E-4	-2.941793987E-3
12.25	7.785836649E-4	9.700589154E-4	-3.032511821E-3
12.26	7.775825648E-4	9.609846235E-4	-3.823685519E-3
12.27	6.632256287E-4	9.588344528E-4	-2.941793987E-3
12.280000000000001	-1.011062250E-4	9.398355029E-4	-2.941793987E-3
12.290000000000001	6.323762272E-4	9.309845814E-4	-2.941793987E-3
12.3	-2.014163001E-4	9.296859849E-4	-2.941793987E-3
12.31	-3.345565397E-4	9.196120209E-4	-3.076306734E-3
12.32	-1.029653381E-3	9.095380575E-4	-3.496504803E-3
12.33	-4.392379418E-5	9.009846323E-4	-1.279820082E-3
12.34	6.239150502E-4	8.993900983E-4	-2.785530814E-3
12.35	-1.914163055E-4	8.909845562E-4	-1.961793789E-3
12.36	-1.896735487E-4	8.892418014E-4	-2.132584077E-3
12.370000000000001	3.476328402E-4	8.791665379E-4	-2.941793987E-3
12.38	2.539381767E-3	8.709845901E-4	-3.127211787E-3
12.39	1.917319691E-3	8.709845901E-4	-3.729125556E-3
12.4	2.092909152E-3	8.689446126E-4	-2.941793987E-3
12.41	-2.335302769E-4	8.609846071E-4	-2.734625717E-3
12.42	-2.918587942E-5	8.609846071E-4	-2.176212207E-3
12.43	5.091771243E-4	8.587226773E-4	-3.163462328E-3
12.44	-1.479792375E-5	1.075266671E-3	-3.692838908E-3
12.450000000000001	4.922606801E-4	1.577072984E-3	-2.705470954E-3
12.46	-4.900185069E-4	8.384991592E-4	-2.205366916E-3
12.47	-9.605930898E-4	8.284251833E-4	-2.690970716E-3
12.48	-2.287829162E-4	8.209845819E-4	-2.219867156E-3
12.49	4.119975609E-5	1.078185883E-3	-2.941793987E-3
12.5	7.458018736E-4	1.768202756E-3	-3.762425141E-3
12.51	7.357267602E-4	1.478149724E-3	-4.489047436E-3
12.52	1.012880806E-3	7.680536801E-4	-1.556250104E-3
12.530000000000001	1.404105452E-3	7.609845907E-4	-3.236271987E-3
12.540000000000001	7.155048187E-4	7.579057357E-4	-3.318336943E-3
12.55	7.085836907E-4	7.509846077E-4	-2.270772253E-3
12.56	7.053568594E-4	7.477577764E-4	-3.577477826E-3
12.57	5.812723698E-5	7.376832618E-4	-4.584962816E-3
12.58	-1.238039905E-3	7.276082436E-4	-3.921793440E-3
12.59	-8.898327966E-4	7.209846121E-4	-3.583660480E-3
12.6	-5.832752365E-4	7.209846121E-4	-3.287177046E-3
12.61	-8.587829278E-4	7.173863016E-4	-3.569160253E-3
12.620000000000001	1.211225995E-4	7.109845825E-4	-2.941793987E-3
12.63	5.441346450E-6	7.109845825E-4	-2.941793987E-3
12.64	-8.268783252E-4	7.109845825E-4	-2.941793987E-3
12.65	-2.175205133E-4	3.369880935E-4	-2.941793987E-3
12.66	-5.964847422E-4	-6.301140254E-4	-2.941793987E-3
12.67	-3.969271390E-4	-8.086832465E-4	-2.545505569E-3
12.68	-4.025776566E-5	-6.143183605E-4	-2.365332336E-3
12.69	-1.177224552E-3	-1.174823660E-3	-3.352582333E-3
12.700000000000001	-3.437399751E-4	-1.574320793E-3	-3.503689139E-3
12.71	7.685836819E-4	-1.689231030E-3	-2.941793987E-3
12.72	3.403057382E-4	-2.724594778E-4	-3.374486934E-3
12.73	2.295485553E-4	3.755305128E-4	-3.921793440E-3
12.74	-1.312399542E-4	-1.039712651E-3	-4.368986955E-3
12.75	-7.369011618E-4	-2.079739521E-3	-3.992763573E-3
12.76	-6.638387498E-4	-1.602454648E-3	-2.941793987E-3
12.77	-7.023182551E-4	-1.538539943E-3	-2.941793987E-3
12.780000000000001	2.800711426E-4	-2.495920724E-3	-2.941793987E-3
12.790000000000001	1.247377942E-3	-2.480613105E-3	-2.941793987E-3
12.8	1.723574197E-3	-2.444912722E-3	-3.432719406E-3
12.81	1.215325818E-3	-1.917583180E-3	-3.921793440E-3
12.82	7.285836567E-4	-1.438894149E-3	-3.416445093E-3
12.83	1.230800208E-3	-1.381104519E-3	-3.967152648E-3
12.84	6.485774087E-4	-1.423712352E-3	-4.381790408E-3
12.85	-2.660361717E-4	-2.912001283E-3	-3.394540495E-3
12.86	-7.904655380E-4	-2.713646244E-3	-2.941793987E-3
12.870000000000001	-1.534374493E-4	-7.310365100E-4	-2.941793987E-3
12.88	-3.683903898E-4	-3.968994416E-4	-3.490883682E-3
12.89	-6.594191893E-4	-8.133386041E-4	-3.365473372E-3
12.9	3.264252599E-4	-8.032644156E-4	-4.068978826E-3
12.91	-3.974071394E-4	-7.931897828E-4	-3.759977418E-3
12.92	5.171590024E-4	-7.890153839E-4	-3.519951986E-3
12.93	-3.166815156E-5	-2.036069423E-4	-4.507202007E-3
12.94	-6.126159328E-4	7.776879800E-4	-4.901793638E-3
12.950000000000001	3.663079549E-4	1.154862446E-3	-3.701856804E-3
12.96	1.376203889E-4	1.144789093E-3	-2.334635073E-3
12.97	-2.314163190E-4	1.134714142E-3	-3.190804807E-3
12.98	3.713618739E-4	1.130984614E-3	-3.299980489E-3
12.99	7.185836737E-4	5.083402221E-4	-4.835403222E-3
13.0	7.185836737E-4	1.609846088E-4	-4.612472264E-3
13.01	7.120151348E-4	7.981339738E-4	-3.921793440E-3
13.02	-5.734247321E-4	1.117699513E-3	-3.270825790E-3
13.030000000000001	8.158695896E-5	1.104268055E-3	-2.941793987E-3
13.040000000000001	7.117942613E-4	1.094195160E-3	-2.276430302E-3
13.05	-6.161644071E-4	1.084120621E-3	-3.979803761E-3
13.06	-1.887612796E-3	1.074045071E-3	-4.901793638E-3
13.07	-7.996565863E-4	1.063970561E-3	-4.214420639E-3
13.08	-2.114163064E-4	1.060984547E-3	-4.616416579E-3
13.09	-2.042543315E-4	1.748533667E-3	-4.199920401E-3
13.1	-2.014163001E-4	1.311861323E-3	-4.630916818E-3
13.11	1.216710505E-3	1.033674661E-3	-4.185420162E-3
13.120000000000001	2.984940607E-4	1.747336831E-3	-3.921793440E-3
13.13	5.046925881E-4	1.262497291E-3	-3.190766000E-3
13.14	1.479328079E-3	1.003451126E-3	-4.418349607E-3
13.15	-5.027857490E-4	1.000984556E-3	-4.901793638E-3
13.16	-4.486381383E-4	9.933031587E-4	-4.901793638E-3
13.17	-9.736891936E-4	9.832291947E-4	-3.381737265E-3
13.18	-4.241378813E-4	2.492053212E-3	-3.709071971E-3
13.19	-2.114163064E-4	2.120524848E-3	-3.147143418E-3
13.200000000000001	-9.853703011E-4	1.903005606E-3	-3.723726486E-3
13.21	3.969497253E-4	1.884878768E-3	-3.132610857E-3
13.22	-7.980289115E-4	1.076424514E-3	-3.738226714E-3
13.23	-3.577330500E-4	8.827837205E-4	-3.921793440E-3
13.24	6.212422331E-4	8.727097565E-4	-3.110860484E-3
13.25	1.606767152E-3	1.672470500E-3	-2.123610328E-3
13.26	9.345959936E-4	1.822560532E-3	-3.612920600E-3
13.27	7.700853322E-4	9.881465814E-4	-3.921793440E-3
13.280000000000001	-8.944478421E-4	8.324122815E-4	-3.081705804E-3
13.290000000000001	-3.154317395E-4	8.223382772E-4	-2.941793987E-3
13.3	-1.018564011E-3	8.209845819E-4	-3.796381850E-3
13.31	-1.123827729E-3	8.209845819E-4	-2.198116756E-3
13.32	-2.523277292E-4	8.032481105E-4	-2.830882541E-3
13.33	-1.000005680E-3	8.009846159E-4	-2.941793987E-3
13.34	-2.176731993E-4	7.829490309E-4	-1.174307749E-3
13.35	7.513933116E-4	7.718928092E-4	-1.872786992E-3
13.36	8.385836561E-4	7.709845738E-4	-2.860037316E-3
13.370000000000001	-5.767000976E-5	7.894640430E-4	-2.941793987E-3
13.38	7.720135305E-4	7.816708921E-4	-2.029050221E-3
13.39	-7.202228311E-5	7.809846033E-4	-4.721774619E-3
13.4	-1.058660111E-3	7.715229037E-4	-3.047306330E-3
13.41	-2.017445948E-3	7.709845738E-4	-2.007152740E-3
13.42	-1.680085705E-4	7.517621928E-4	-1.961793789E-3
13.43	-1.021194356E-3	-1.691082532E-4	-1.961793789E-3
13.44	8.418623358E-4	-1.892562105E-4	-3.874590456E-3
13.450000000000001	-1.028880472E-3	-1.142830835E-3	-3.921793440E-3
13.46	8.707782492E-4	-1.149106641E-3	-3.921793440E-3
13.47	-7.973674166E-5	-2.097370454E-3	-2.943490872E-3
13.48	8.785836813E-4	-2.067852013E-3	-1.961793789E-3
13.49	8.784530351E-4	-1.215574333E-4	-1.974597143E-3
13.5	8.090370325E-4	-1.068606117E-3	-2.941793987E-3
13.51	-1.986800434E-3	-1.021428780E-3	-2.914486096E-3
13.52	-8.106214897E-5	-1.280771547E-4	-1.961793789E-3
13.530000000000001	-1.129462954E-4	-2.007302787E-3	-1.919835669E-3
13.540000000000001	-1.040914193E-3	-1.919305098E-3	-1.129418541E-3
13.55	-1.030840224E-3	-1.033745385E-3	-3.752418380E-3
13.56	-8.952995561E-4	-1.864006701E-3	-1.109210841E-3
13.57	9.178596337E-4	-9.282912663E-4	-2.941793987E-3
13.58	7.537623789E-4	-9.956279325E-4	-2.785376636E-3
13.59	-8.622160850E-4	-1.792670937E-3	-1.152738550E-3
13.6	8.176155940E-4	-9.799834290E-4	-2.941793987E-3
13.61	-5.141631046E-5	-1.747880418E-3	-2.841680679E-3
13.620000000000001	-5.032076537E-5	-1.070455610E-3	-1.961793789E-3
13.63	-4.258583837E-5	-2.672062766E-3	-1.961793789E-3
13.64	-1.707929724E-4	-1.665908175E-3	-2.205521106E-3
13.65	-1.008780890E-3	-7.976976745E-4	-3.663525323E-3
13.66	-1.125148368E-3	-7.876223441E-4	-1.961793789E-3
13.67	-1.806181027E-3	-4.929458497E-4	-2.249330320E-3
13.68	-6.640025456E-4	1.169443545E-3	-3.468738396E-3
13.69	8.119300904E-4	1.004331028E-3	-1.298331021E-3
13.700000000000001	-1.416313905E-6	1.892956399E-4	-2.776275342E-3
13.71	1.678531991E-4	3.520173501E-4	-2.134589794E-3
13.72	1.136918263E-3	1.150984580E-3	-3.121967024E-3
13.73	1.557562110E-3	1.149072102E-3	-3.734370320E-3
13.74	-2.041032259E-4	1.138998138E-3	-3.136467251E-3
13.75	-9.814163255E-4	1.128924174E-3	-4.123716942E-3
13.76	-9.771474638E-4	1.116715769E-3	-4.274272846E-3
13.77	-7.472009837E-4	1.100984572E-3	-2.394641109E-3
13.780000000000001	-4.319861916E-4	1.098701830E-3	-4.145502553E-3
13.790000000000001	-1.459259803E-3	1.088626652E-3	-4.208559016E-3
13.8	5.103764625E-4	1.080984606E-3	-2.438450327E-3
13.81	1.733005218E-3	1.078478708E-3	-3.676215123E-3
13.82	7.457551211E-4	1.068404720E-3	-3.447450994E-3
13.83	2.786623697E-4	1.058330687E-3	-4.901793638E-3
13.84	9.958558236E-4	1.050984564E-3	-4.901793638E-3
13.85	9.829791301E-4	1.317199920E-3	-4.077927182E-3
13.86	6.894777200E-4	1.995229782E-3	-2.243777147E-3
13.870000000000001	-1.416313905E-6	1.688799809E-3	-3.231027224E-3
13.88	-1.416313905E-6	9.879592355E-4	-3.625310069E-3
13.89	-3.020506062E-4	1.582253174E-3	-3.245527453E-3
13.9	-6.604324984E-4	2.295843641E-3	-3.921793440E-3
13.91	5.336401517E-6	9.477372685E-4	-3.603559746E-3
13.92	6.429091263E-4	1.585310035E-3	-3.267277812E-3
13.93	1.609192885E-3	2.870797205E-3	-3.589007151E-3
13.94	9.685836216E-4	2.507375295E-3	-3.281932282E-3
13.950000000000001	6.247398085E-4	2.201283655E-3	-3.921793440E-3
13.96	1.055262284E-3	2.108088405E-3	-3.921793440E-3
13.97	2.190998588E-3	1.209237124E-3	-3.559847798E-3
13.98	9.448159566E-4	1.451749503E-3	-2.941793987E-3
13.99	5.659766254E-4	8.371432912E-4	-3.318242140E-3
14.0	-4.112935085E-4	8.309846115E-4	-4.305586982E-3
14.01	-9.974260578E-4	8.269943592E-4	-4.510749987E-3
14.02	-2.029573671E-4	8.209845819E-4	-3.921793440E-3
14.030000000000001	1.457724574E-4	8.209845819E-4	-3.921793440E-3
14.040000000000001	-1.699112930E-4	8.209845819E-4	-4.334652465E-3
14.05	5.426730866E-4	8.166968514E-4	-4.901793638E-3
14.06	-1.141631365E-5	8.109845989E-4	-4.901793638E-3
14.07	-1.141631365E-5	8.109845989E-4	-4.467180879E-3
14.08	4.215129706E-4	8.064749264E-4	-4.363742188E-3
14.09	5.038985312E-4	7.964002195E-4	-4.452524026E-3
14.1	-1.675709763E-5	7.909845863E-4	-3.921793440E-3
14.11	-4.704641143E-4	3.319368108E-4	-3.921793440E-3
14.120000000000001	-9.814163255E-4	2.823225414E-4	-3.450844571E-3
14.13	-1.449930111E-3	7.809846033E-4	-2.941793987E-3
14.14	-1.455812598E-3	7.809846033E-4	-3.913001069E-3
14.15	5.020576064E-4	2.931599869E-4	-3.916086323E-3
14.16	1.443297158E-3	-6.840940611E-4	-2.941793987E-3
14.17	-5.109527645E-5	-6.464091208E-4	-3.449222095E-3
14.18	2.728974438E-5	-6.783684036E-4	-3.921793440E-3
14.19	9.432577835E-4	-6.117531337E-4	-3.399857383E-3
14.200000000000001	4.093250851E-4	-1.196731390E-3	-3.471052287E-3
14.21	-4.141631289E-5	-1.547032075E-3	-3.921793440E-3
14.22	-3.586775312E-5	-5.497079602E-4	-3.378034911E-3
14.23	5.028091390E-4	-6.544876570E-4	-3.492889397E-3
14.24	-1.809756154E-4	-1.625946397E-3	-3.921793440E-3
14.25	1.082373571E-4	-1.467645665E-3	-3.356195519E-3
14.26	3.615161895E-4	-1.037323221E-3	-3.514707223E-3
14.27	1.101150912E-3	-1.591418955E-3	-2.761466283E-3
14.280000000000001	1.301169844E-3	-1.961033275E-3	-2.549207699E-3
14.290000000000001	3.198951128E-4	-1.930808445E-3	-1.752278958E-3
14.3	1.117960365E-3	-1.900587598E-3	-1.583767367E-3
14.31	3.702057906E-5	-1.273538416E-3	-2.571053938E-3
14.32	1.489455906E-4	-8.927248689E-4	-1.708851043E-3
14.33	8.622187259E-4	-1.493683095E-3	-1.605556398E-3
14.34	2.338560678E-4	-1.819693837E-3	-2.592962003E-3
14.35	-1.049012771E-4	-1.150997112E-3	-2.303320713E-3
14.36	-7.470379243E-4	-7.924274021E-4	-2.607415575E-3
14.370000000000001	-1.074753792E-3	-1.428612392E-3	-2.288871941E-3
14.38	-4.112966875E-4	-1.728807595E-3	-1.301674297E-3
14.39	-7.451168847E-4	-1.698587186E-3	-9.817939639E-4
14.4	9.428752166E-4	-1.015082344E-3	-3.078608349E-4
14.41	1.159982956E-3	-6.951042321E-4	-1.365084044E-3
14.42	8.585836222E-4	6.755815845E-4	-5.831287855E-4
14.43	8.514751819E-4	-1.209466919E-4	-6.984222361E-4
14.44	1.591786225E-4	1.038965722E-5	-2.780261658E-4
14.450000000000001	-8.078809279E-4	9.774492597E-4	7.091804366E-4
14.46	-1.064086303E-3	1.233654583E-3	-1.176806424E-3
14.47	-3.357875041E-4	1.223580174E-3	-5.105361716E-4
14.48	-7.393795497E-5	1.206027867E-3	-1.793766017E-6
14.49	-7.141631141E-5	1.193431075E-3	7.384516940E-4
14.5	6.608612973E-4	1.175728776E-3	1.725739479E-3
14.51	8.731799445E-4	1.163282686E-3	4.486390856E-4
14.52	8.608077856E-4	1.145432883E-3	-1.793766017E-6
14.530000000000001	1.604317887E-3	1.125284955E-3	-1.793766017E-6
14.540000000000001	1.792733493E-3	1.113059508E-3	7.748622669E-4
14.55	-5.388667190E-4	1.094988359E-3	2.545835917E-3
14.56	-1.089124062E-3	1.074838521E-3	2.938206083E-3
14.57	4.991659685E-4	1.836833703E-3	2.139767580E-3
14.58	8.503623235E-4	1.197074642E-3	1.152517419E-3
14.59	3.564494966E-5	9.960987003E-4	3.417022195E-3
14.6	-1.230470347E-4	9.826153125E-4	1.457639413E-3
14.61	6.808191924E-4	1.774775431E-3	2.633344618E-3
14.620000000000001	8.200648780E-4	1.886909302E-3	2.938206083E-3
14.63	8.013980578E-4	1.829427894E-3	4.613800208E-3
14.64	2.453936856E-3	9.629742714E-4	2.348842110E-3
14.65	2.656147384E-3	1.661225289E-3	3.671123758E-3
14.66	1.749500003E-3	9.083445167E-4	3.054380556E-3
14.67	-9.582680220E-5	2.488728838E-3	2.067112106E-3
14.68	-2.934880975E-4	1.795609812E-3	3.715170744E-3
14.69	-2.823780553E-4	1.654831566E-3	3.918206001E-3
14.700000000000001	-1.147078164E-3	1.632760139E-3	3.025207496E-3
14.71	-1.203857688E-3	2.457743537E-3	4.729517111E-3
14.72	-2.062614097E-3	7.067267779E-4	3.989967377E-3
14.73	6.034961419E-4	1.447730994E-3	3.003457186E-3
14.74	7.797673557E-4	5.795773755E-4	3.860205059E-3
14.75	7.691015471E-4	5.115024615E-4	3.918206001E-3
14.76	7.494714395E-4	5.014284974E-4	2.981706789E-3
14.77	7.389520736E-4	4.913529727E-4	2.938206083E-3
14.780000000000001	-1.931587497E-4	4.812789498E-4	4.830807831E-3
14.790000000000001	1.656272873E-3	4.712049629E-4	2.981177907E-3
14.8	7.230761042E-4	4.709845944E-4	3.903859975E-3
14.81	-1.207441790E-3	4.511294185E-4	3.918206001E-3
14.82	-1.191262015E-3	4.509830313E-4	2.938360315E-3
14.83	-2.113391780E-4	4.409074704E-4	3.918206001E-3
14.84	-2.159228317E-4	4.309845925E-4	3.918206001E-3
14.85	-1.074531556E-3	4.307595029E-4	3.918206001E-3
14.86	2.696788863E-3	4.206854909E-4	3.918206001E-3
14.870000000000001	2.529192839E-3	4.113592296E-4	3.881492642E-3
14.88	-2.383500843E-4	4.205360028E-4	2.982169514E-3
14.89	7.271843025E-4	3.613387695E-4	3.968897011E-3
14.9	1.492252793E-3	-4.811482872E-4	4.771875233E-3
14.91	-4.051184778E-4	3.666118617E-4	2.872492249E-3
14.92	-1.289182679E-3	-4.582850429E-4	2.104133882E-3
14.93	-1.180383735E-3	3.440445862E-4	3.997601558E-3
14.94	-3.544310516E-4	-6.859375027E-4	4.888206003E-3
14.950000000000001	-1.014583422E-3	-2.292210671E-3	4.699437014E-3
14.96	6.285490350E-4	-1.385889303E-3	2.938206083E-3
14.97	-1.276276016E-4	-1.351203296E-3	3.155827583E-3
14.98	6.950136949E-4	-1.059347513E-3	4.888206003E-3
14.99	6.685836655E-4	3.970385285E-4	4.641731993E-3
15.0	5.387820307E-4	-1.156537414E-3	2.807066283E-3
15.01	-1.657198022E-4	-2.976018719E-4	2.096729598E-3
15.02	5.142975628E-4	-4.288390383E-4	2.938206083E-3
15.030000000000001	-3.098548352E-4	-1.222769510E-3	3.091229830E-3
15.040000000000001	-2.997808681E-4	-1.182473563E-3	3.918206001E-3
15.05	-2.897068806E-4	-1.142177629E-3	3.918206001E-3
15.06	-2.778494878E-4	-1.273089014E-3	3.918206001E-3
15.07	-8.867903753E-5	-1.835846754E-3	4.098372843E-3
15.08	8.540244320E-4	-9.851519810E-4	4.322225371E-3
15.09	1.620555986E-3	-7.723366684E-4	2.154884768E-3
15.1	1.584421787E-3	-1.887824168E-4	2.734277238E-3
15.11	1.150535550E-3	-9.425507213E-4	2.169385005E-3
15.120000000000001	-5.809299212E-4	-9.145576207E-4	3.156635142E-3
15.13	-8.646636812E-4	-8.967125386E-4	3.466847680E-3
15.14	1.697833246E-4	-6.560494026E-4	2.191172069E-3
15.15	-1.058630187E-3	9.098461130E-5	2.938206083E-3
15.16	-3.088899387E-4	9.351097636E-5	3.185789844E-3
15.17	-4.658240171E-5	3.532181919E-4	3.408538171E-3
15.18	9.272960096E-4	1.062961631E-3	2.482374090E-3
15.19	1.336501119E-3	1.038236278E-3	3.648871864E-3
15.200000000000001	3.476013514E-4	1.025339142E-3	2.938206083E-3
15.21	-6.322336355E-5	1.005188928E-3	3.222194691E-3
15.22	3.362603688E-4	9.790972683E-4	4.206472948E-3
15.23	-3.314163121E-4	9.479387478E-4	4.294274095E-3
15.24	-6.277959508E-4	9.316252230E-4	3.243945063E-3
15.25	-9.652334189E-4	8.950157808E-4	4.228001341E-3
15.26	-6.051200333E-4	8.577168501E-4	4.250995295E-3
15.27	-9.205331280E-4	8.476423293E-4	2.938206083E-3
15.280000000000001	5.980825992E-5	8.341500246E-4	3.273099773E-3
15.290000000000001	6.750923907E-4	1.156145890E-3	3.576062178E-3
15.3	6.650184271E-4	1.773854058E-3	2.588812123E-3
15.31	1.004310049E-3	1.400701258E-3	2.314850162E-3
15.32	1.601157159E-3	7.672713740E-4	2.938206083E-3
15.33	1.213652121E-3	7.571974102E-4	2.567061756E-3
15.34	-1.388993343E-4	7.471234287E-4	2.714994902E-3
15.35	-5.478772767E-4	1.114882533E-3	3.532500743E-3
15.36	-5.345202477E-4	1.682963108E-3	2.545157144E-3
15.370000000000001	-1.466733469E-3	2.054944873E-3	2.358505118E-3
15.38	9.787839341E-5	2.186733970E-3	3.345819399E-3
15.39	2.478643656E-4	1.984767024E-3	3.503252491E-3
15.4	-3.114162995E-4	2.090232359E-3	2.093931699E-3
15.41	-1.156873480E-3	1.941522843E-3	1.407505580E-3
15.42	-1.363724197E-3	1.603292457E-3	2.394824464E-3
15.43	1.634774205E-4	9.458783250E-4	2.938206083E-3
15.44	1.116767211E-3	1.894563991E-3	3.389410174E-3
15.450000000000001	1.160129450E-3	1.932530360E-3	2.542843277E-3
15.46	6.338308448E-4	9.404541150E-4	1.909761387E-3
15.47	6.189299204E-4	4.209846095E-4	2.938206083E-3
15.48	6.085836743E-4	8.963639371E-4	2.457925900E-3
15.49	-3.467318751E-4	8.983999902E-4	2.445815056E-3
15.5	-8.115076353E-4	4.009845969E-4	2.443346980E-3
15.51	-1.315543988E-3	4.009845969E-4	1.958206071E-3
15.52	-1.237189955E-3	4.009845969E-4	2.467719669E-3
15.530000000000001	-2.914163102E-4	3.957123364E-4	3.454888444E-3
15.540000000000001	2.271793856E-4	3.909846139E-4	2.870321907E-3
15.55	1.188163392E-3	3.855635499E-4	3.020733919E-3
15.56	2.135117569E-3	3.809846076E-4	2.841177908E-3
15.57	9.266031788E-4	3.809846076E-4	2.504056203E-3
15.58	1.704630720E-4	3.809846076E-4	2.385037522E-3
15.59	3.397089186E-5	3.752669463E-4	1.397875613E-3
15.6	-3.814162970E-4	3.651927216E-4	9.782060593E-4
15.610000000000001	-3.755497874E-4	3.609845950E-4	9.782060593E-4
15.620000000000001	-3.654758100E-4	3.609845950E-4	1.560375091E-3
15.63	-3.554008762E-4	3.609845950E-4	1.368694149E-3
15.64	-3.514163014E-4	3.609845950E-4	2.171665213E-3
15.65	8.440975263E-4	3.671470416E-4	2.334286686E-3
15.66	1.569871408E-3	3.647471918E-4	1.958206071E-3
15.67	9.400097949E-4	-2.449653041E-4	1.958206071E-3
15.68	5.721977006E-4	2.042265091E-5	2.584030081E-3
15.69	5.556617567E-4	-8.630582296E-4	3.571379833E-3
15.700000000000001	-7.219061232E-5	-8.921032055E-4	2.637450617E-3
15.71	2.329422211E-4	-1.817732418E-3	2.605780420E-3
15.72	5.519007435E-4	-3.057113389E-3	3.593133561E-3
15.73	5.418262259E-4	-2.632726867E-3	3.918206001E-3
15.74	-7.798799532E-4	-1.605873548E-3	2.579248144E-3
15.75	-7.077817967E-4	-1.282109986E-3	1.958206071E-3
15.76	-4.014162863E-4	-1.942160834E-3	1.958206071E-3
15.77	2.758573750E-4	-1.523521943E-3	1.958206071E-3
15.780000000000001	1.221572794E-3	-1.200499702E-3	3.355473426E-3
15.790000000000001	1.481381919E-3	-1.167410038E-3	1.800887818E-3
15.8	7.656040194E-4	-4.387604076E-4	1.691185727E-3
15.81	-1.995982512E-4	-8.745466038E-4	2.678435879E-3
15.82	-4.365674187E-4	-1.826912011E-3	2.210611616E-3
15.83	-4.164186693E-4	-1.289138142E-3	4.155360010E-3
15.84	-4.114163159E-4	-1.013869774E-3	3.411510038E-3
15.85	-4.114163159E-4	-1.001368615E-3	2.938206083E-3
15.860000000000001	3.376154224E-4	-1.732603103E-3	2.181452345E-3
15.870000000000001	-1.898626894E-4	-4.131409937E-4	1.194167036E-3
15.88	-1.156964771E-3	2.098461380E-5	2.520784309E-3
15.89	9.344800314E-4	2.098461380E-5	3.716745280E-3
15.9	7.427943157E-4	2.098461380E-5	3.132416715E-3
15.91	1.325438665E-3	7.897473880E-4	2.938206083E-3
15.92	1.484081158E-3	9.628171141E-4	2.938206083E-3
15.93	-1.203206963E-4	9.527427856E-4	2.938206083E-3
15.94	-1.259728923E-3	9.426688053E-4	2.938206083E-3
15.950000000000001	-5.908323543E-4	9.242051194E-4	2.116011875E-3
15.96	-1.252526105E-3	9.209845983E-4	1.958206071E-3
15.97	2.552025715E-4	9.124453401E-4	1.958206071E-3
15.98	-1.123774147E-3	8.937580581E-4	1.958206071E-3
15.99	1.119194377E-3	8.736101171E-4	3.660903935E-3
16.0	6.312233987E-4	8.622233903E-4	3.059607029E-3
16.01	4.997484770E-4	8.521493851E-4	2.938206083E-3
16.02	1.362909814E-3	8.509845776E-4	3.184958900E-4
16.03	-2.834388784E-4	8.330151457E-4	2.639717062E-3
16.04	3.972787937E-4	8.309846115E-4	2.050452260E-3
16.05	-1.255760638E-3	1.707723030E-3	1.958206071E-3
16.06	-5.099555620E-4	8.795238848E-4	1.055952011E-3
16.07	-1.322359098E-3	7.824232956E-4	1.887710196E-3
16.080000000000002	-4.653073643E-4	7.716299401E-4	2.874960368E-3
16.09	5.131593977E-4	7.709845738E-4	2.014201711E-3
16.1	5.590810681E-4	7.519794117E-4	2.889460605E-3
16.11	5.490055968E-4	2.599555029E-3	1.999553679E-3
16.12	5.389315222E-4	1.706119165E-3	1.958206071E-3
16.13	1.491742756E-3	1.661258438E-3	5.188795739E-5
16.14	-3.826345269E-4	2.582193461E-3	1.919024488E-3
16.15	5.264948766E-4	6.656658628E-4	2.925865455E-3
16.16	1.483797775E-3	6.310349567E-4	2.938206083E-3
16.17	4.840268867E-4	2.566333250E-3	9.782060593E-4
16.18	-1.431754713E-3	6.103533843E-4	9.973340296E-4
16.19	-4.678872048E-4	1.543827338E-3	2.904577972E-3
16.2	-1.363533362E-3	5.850488241E-4	9.300776179E-4
16.21	5.385836535E-4	1.509670279E-3	-9.191653794E-4
16.22	5.381901393E-4	5.609846045E-4	1.016770516E-3
16.23	4.827619331E-4	6.058712060E-4	1.958206071E-3
16.240000000000002	-3.987404406E-4	1.467765698E-3	1.904987165E-3
16.25	5.772016556E-4	5.409845919E-4	1.038675127E-3
16.26	1.400864474E-3	5.402935815E-4	2.025925214E-3
16.27	3.409400679E-4	5.309846089E-4	2.788267477E-3
16.28	-1.359183974E-3	5.309846089E-4	8.137414206E-4
16.29	-4.614163241E-4	5.300702221E-4	-7.129650247E-4
16.3	-5.561769809E-4	5.199974908E-4	1.668001556E-3
16.31	-1.214230830E-3	5.120470842E-4	-8.776699511E-4
16.32	6.376848769E-4	5.198481104E-4	3.323286618E-4
16.330000000000002	1.486162760E-3	5.097741471E-4	2.582333415E-3
16.34	1.341424801E-3	5.009846133E-4	-1.793766017E-6
16.35	4.785836623E-4	4.996259826E-4	2.644970451E-4
16.36	3.394887910E-4	4.895506184E-4	1.817677228E-3
16.37	-1.988742338E-4	4.794766508E-4	8.304270911E-4
16.38	9.898241394E-4	3.191193785E-4	3.082643653E-4
16.39	-1.287481140E-3	-3.300479764E-4	1.795926839E-3
16.4	-4.614163241E-4	4.692547064E-4	8.086767742E-4
16.41	-6.327841593E-4	1.128373046E-4	1.749856678E-4
16.42	-1.047055529E-3	-1.283078684E-3	9.782060593E-4
16.43	7.180641881E-4	-4.770619476E-4	9.782060593E-4
16.44	1.105270284E-3	-4.669879836E-4	1.176890138E-3
16.45	-2.375835190E-4	-6.586454375E-4	1.958206071E-3
16.46	7.374172817E-4	-1.191480348E-3	1.958206071E-3
16.47	1.049964197E-3	-6.249511077E-4	1.958206071E-3
16.48	-1.301718042E-5	-1.587406649E-3	1.730521521E-3
16.490000000000002	1.005906225E-3	-2.301823500E-3	9.782060593E-4
16.5	-2.241367274E-4	-2.271600299E-3	7.359831806E-4
16.51	2.540881736E-4	-2.485870320E-3	4.973845083E-4
16.52	-7.156347628E-4	-2.408497519E-3	1.444527609E-3
16.53	-1.687421297E-3	-4.977151879E-4	-1.793766017E-6
16.54	-1.838737237E-3	-1.462048509E-3	2.695456746E-4
16.55	-4.214162989E-4	-1.867538610E-3	6.995726077E-4
16.56	-1.383406062E-4	-1.156097013E-3	-1.793766017E-6
16.57	2.613241549E-4	-1.143030768E-3	2.914502838E-4
16.580000000000002	1.803733398E-4	-8.285211292E-4	6.777118733E-4
16.59	9.061388488E-4	-4.536674077E-4	-1.793766017E-6
16.6	1.891360077E-4	-8.007009861E-4	6.284043831E-4
16.61	8.638592751E-4	-4.447332076E-4	9.913201875E-4
16.62	2.211540646E-4	-7.560026367E-4	-6.521449454E-4
16.63	8.382232279E-4	-9.901538026E-5	3.351052598E-4
16.64	-7.785420308E-4	-9.901538026E-5	9.782060593E-4
16.65	-1.050016955E-3	-4.432432906E-4	6.268068008E-4
16.66	-4.177566171E-4	-7.003659610E-4	7.155050256E-4
16.67	-4.076826359E-4	-7.528171236E-5	1.592306510E-3
16.68	-3.976080439E-4	2.965764840E-4	9.782060593E-4
16.69	-1.480477589E-5	8.871019696E-4	1.358700191E-3
16.7	9.544258548E-4	8.770283461E-4	1.570495159E-3
16.71	1.133529359E-3	8.709845901E-4	5.831518542E-4
16.72	9.385726325E-4	8.668794501E-4	4.005105651E-4
16.73	6.836537775E-4	8.568054671E-4	9.782060593E-4
16.740000000000002	-3.461167117E-5	8.509845776E-4	5.614014954E-4
16.75	1.131831204E-4	8.509845776E-4	-1.793766017E-6
16.76	-4.270145262E-4	8.465828218E-4	4.295789531E-4
16.77	-4.214162989E-4	8.409845945E-4	1.007875507E-4
16.78	2.006191859E-5	8.364332804E-4	-8.973485811E-5
16.79	1.044722661E-4	8.309846115E-4	5.248424015E-4
16.8	-4.114163159E-4	8.262844562E-4	4.588200119E-4
16.81	5.167352878E-5	8.162104679E-4	4.247809732E-5
16.82	1.024001532E-3	8.109845989E-4	-5.066797726E-4
16.830000000000002	1.031297348E-3	7.962183497E-4	9.629345783E-4
16.84	1.008205872E-3	1.260606804E-3	9.789774909E-4
16.85	5.100649171E-4	1.730844529E-3	-1.793766017E-6
16.86	-4.414163115E-4	1.710696506E-3	5.023207103E-4
16.87	-4.361974679E-4	1.685328026E-3	1.489651230E-3
16.88	-9.395982199E-4	1.660397429E-3	9.206680328E-4
16.89	-8.653971227E-4	1.640249502E-3	-1.793766017E-6
16.9	-4.059747764E-4	1.620101524E-3	-1.793766017E-6
16.91	-3.903835466E-4	1.070380029E-3	-5.423984092E-4
16.92	-3.814162970E-4	6.309845787E-4	6.619774194E-4
16.93	1.737576085E-4	1.174828411E-3	2.926843147E-4
16.94	1.155181073E-3	1.585246470E-3	-4.194583137E-4
16.95	4.351768701E-4	1.563547543E-3	-1.793766017E-6
16.96	1.955079548E-4	1.550984553E-3	-1.793766017E-6
16.97	-5.518821798E-4	1.533101694E-3	5.823805157E-4
16.98	-7.338627666E-4	9.294669643E-4	3.866885325E-4
16.990000000000002	-9.341346835E-4	5.287635869E-4	-1.199451519E-3
17.0	-6.929683506E-4	1.114694619E-3	4.625221201E-4
17.01	-9.121339571E-4	8.677519909E-4	7.317409542E-4
17.02	-6.508936359E-4	5.009846133E-4	6.187287934E-4
17.03	3.300065819E-4	5.009846133E-4	1.606035407E-3
17.04	1.294318843E-3	5.009846133E-4	-5.825115251E-4
17.05	3.569281519E-4	4.944296684E-4	-3.464578350E-5
17.06	1.604180932E-3	4.909845837E-4	9.782060593E-4
17.07	6.214989229E-4	4.909845837E-4	9.782060593E-4
17.080000000000002	3.092133472E-4	4.909845837E-4	3.140217183E-4
17.09	-3.909331558E-5	4.909845837E-4	-1.793766017E-6
17.1	-3.344909296E-4	4.909845837E-4	-1.793766017E-6
17.11	3.405685617E-4	-8.599849293E-4	-1.793766017E-6
17.12	-5.768519207E-5	-5.940265418E-5	-6.951377347E-4
17.13	-1.027756538E-3	-1.753556468E-4	-2.811547896E-4
17.14	-1.286969554E-3	2.588737911E-4	-7.096830815E-4
17.150000000000002	-1.274118954E-3	-1.768573068E-4	-2.666545513E-4
17.16	8.736379626E-4	2.833740105E-4	7.205955146E-4
17.17	2.338441914E-3	5.335393035E-4	9.782060593E-4
17.18	1.826537055E-3	-1.985005302E-4	2.412005725E-4
17.19	9.759045974E-5	-4.390153731E-4	7.425001238E-4
17.2	-1.099953970E-3	-1.175221852E-3	9.782060593E-4
17.21	-1.313673521E-3	-6.324783185E-4	2.194119353E-4
17.22	-1.287965954E-3	3.413954135E-4	1.530294806E-3
17.23	-1.265634788E-3	-2.065283535E-4	4.116172074E-4
17.240000000000002	-4.729069753E-4	-4.090153775E-4	7.787506802E-4
17.25	-1.043255021E-3	-1.172814109E-3	9.782060593E-4
17.26	-4.281029108E-4	-2.129871677E-3	9.782060593E-4
17.27	-2.414163020E-4	-3.070523094E-3	1.757570062E-4
17.28	5.516336768E-4	-1.603349674E-3	8.077779636E-4
17.29	7.269196162E-4	-1.234007503E-3	-6.556414683E-4
17.3	7.201734712E-4	-3.964056033E-4	-1.575942146E-4
17.31	-1.741828614E-3	-1.045012487E-3	8.296557527E-4
17.32	-4.951931731E-4	4.715292255E-4	1.817037884E-3
17.330000000000002	-1.040253049E-3	-8.648585648E-5	1.112101865E-3
17.34	-3.093543326E-4	-1.899600783E-3	1.248519336E-4
17.35	-1.638529542E-4	-1.270847540E-3	-1.793766017E-6
17.36	-1.020415118E-3	-1.131304045E-3	-1.793766017E-6
17.37	-1.122486633E-3	-1.102226409E-3	-1.793766017E-6
17.38	6.252859511E-4	-1.090011718E-3	-1.793766017E-6
17.39	1.690170500E-3	6.813954080E-4	-1.793766017E-6
17.400000000000002	-6.000724491E-6	-9.144480605E-4	-1.793766017E-6
17.41	1.618624497E-3	-1.563139166E-4	-1.793766017E-6
17.42	8.570741292E-4	-8.831650271E-5	-1.793766017E-6
17.43	-1.208008103E-4	8.109939907E-4	-1.793766017E-6
17.44	-1.098121242E-3	-3.626974664E-5	-9.279494452E-4
17.45	-1.122842374E-3	-8.901538561E-5	-4.837964272E-5
17.46	-1.807521018E-4	-7.941676522E-5	9.388702721E-4
17.47	-1.079658065E-3	8.495537530E-4	-9.176227022E-4
17.48	-1.465052905E-4	8.712380138E-4	-9.817939639E-4
17.490000000000002	-1.214163080E-4	8.709845901E-4	-1.937916318E-5
17.5	8.284592580E-4	8.610900694E-4	-9.714586383E-4
17.51	1.775624411E-3	8.410475570E-4	1.948950601E-3
17.52	2.719901193E-3	8.409405209E-4	9.695676211E-4
17.53	7.699168318E-4	8.308665572E-4	-9.702246730E-4
17.54	1.718199488E-3	8.207925470E-4	1.702568506E-5
17.55	1.646976575E-3	8.104525675E-4	9.521365386E-4
17.56	-2.087766067E-4	7.909845863E-4	-1.793766017E-6
17.57	6.378454240E-4	7.909845863E-4	-4.236992131E-5
17.580000000000002	-1.136447062E-3	7.904950551E-4	-1.029768094E-3
17.59	5.998256302E-4	7.798575761E-4	-1.851345187E-3
17.6	-1.158304423E-3	8.221839817E-4	-1.793766017E-6
17.61	-1.631147344E-4	1.719561676E-3	-1.793766017E-6
17.62	6.531799569E-4	1.623224424E-3	-1.557429922E-4
17.63	-6.468565808E-5	8.777152495E-4	-1.793344244E-3
17.64	1.616175319E-3	2.557642866E-3	-9.326863348E-5
17.650000000000002	6.218582354E-4	1.551236459E-3	-8.830533898E-4
17.66	-2.414163020E-4	6.620675304E-4	-1.793766017E-6
17.67	-3.524819001E-4	7.820501993E-4	-1.793766017E-6
17.68	-1.078324875E-3	1.747921462E-3	-1.793766017E-6
17.69	-2.001114059E-4	2.450495006E-3	-1.793766017E-6
17.7	-5.764426925E-5	1.579605504E-3	-1.369449268E-4
17.71	7.785836649E-4	1.427018607E-3	-9.817939639E-4
17.72	6.304570951E-4	5.809846171E-4	-8.321402813E-4
17.73	-3.452459862E-4	7.348142885E-4	1.552406700E-4
17.740000000000002	-8.245236002E-4	1.375023656E-3	8.139215397E-4
17.75	7.950829288E-4	7.207689637E-4	-1.793766017E-6
17.76	7.767593335E-4	1.342199816E-3	-1.793766017E-6
17.77	5.863453809E-4	5.371879582E-4	-1.878287383E-4
17.78	-1.874710922E-4	5.209845793E-4	-1.368424852E-3
17.79	-3.680099916E-4	5.209845793E-4	-2.139036382E-3
17.8	-9.234767237E-4	5.188627508E-4	7.702665508E-4
17.81	-3.622143203E-4	5.109845963E-4	2.133958313E-4
17.82	-1.104606900E-3	5.087148065E-4	7.557663180E-4
17.830000000000002	-1.079072110E-3	2.759468785E-4	-1.793766017E-6
17.84	-8.319026991E-4	-4.565960495E-4	-2.388880626E-4
17.85	-7.892300164E-5	-4.465220503E-4	-7.374495227E-4
17.86	-6.884902062E-5	-1.925554811E-4	-1.793766017E-6
17.87	-6.141631093E-5	5.209845793E-4	-1.793766017E-6
17.88	-6.141631093E-5	5.182693317E-4	-1.793766017E-6
17.89	2.036025739E-4	5.109845963E-4	2.715940946E-4
17.900000000000002	5.493034300E-5	2.359649481E-4	4.167075763E-4
17.91	-1.442478818E-3	-4.490153561E-4	-6.937945702E-4
17.92	-5.141631046E-5	-4.460026115E-4	2.934556549E-4
17.93	-3.477424111E-4	-7.353414845E-4	9.782060593E-4
17.94	-1.008255071E-3	-7.857408243E-4	6.684076259E-4
17.95	-6.304678755E-5	2.303519350E-4	3.153103638E-4
17.96	1.256701103E-3	-7.366479433E-4	6.539561728E-4
17.97	6.114358033E-4	-1.696984772E-3	3.297062209E-4
17.98	1.549833458E-3	-2.305188814E-3	3.007056919E-4
17.990000000000002	1.244044877E-3	-1.925898237E-3	-6.357391575E-4
18.0	1.501572866E-3	-1.268196865E-3	3.516108301E-4
18.01	5.152892056E-4	-1.591269351E-3	9.782060593E-4
18.02	-4.556243758E-4	-2.171505826E-3	2.422804567E-4
18.03	-1.057587206E-3	-1.408514954E-3	-9.817939639E-4
18.04	-6.689509884E-4	1.795472075E-4	-5.993285708E-4
18.05	-7.141631141E-5	3.851527291E-4	-1.793766017E-6
18.06	3.175400577E-4	-5.920233951E-4	-3.988534830E-4
18.07	9.234100928E-5	-1.156638544E-3	2.311352882E-4
18.080000000000002	-2.308953518E-4	-1.537976475E-3	1.546646194E-3
18.09	8.843101003E-4	-1.661658255E-3	5.593961512E-4
18.1	1.295948705E-3	-6.629552476E-4	-1.793766017E-6
18.11	1.400783045E-3	-1.045931486E-4	-4.351722676E-4
18.12	4.169312065E-4	-9.451900293E-5	-5.411486615E-4
18.13	-5.501567974E-4	-8.901538561E-5	-1.793766017E-6
18.14	-6.162014547E-4	-8.901538561E-5	4.534209855E-4
18.150000000000002	-5.491622221E-4	-5.420422458E-4	9.782060593E-4
18.16	-5.917012272E-4	-1.191712594E-4	5.084910735E-4
18.17	-8.141631188E-5	8.861168063E-4	-1.793766017E-6
18.18	8.724951887E-4	8.760420350E-4	-1.793766017E-6
18.19	1.833534060E-3	8.609515291E-4	9.814455175E-4
18.2	1.314623316E-3	8.509845776E-4	4.615966528E-4
18.21	8.182530872E-4	8.458192846E-4	-4.755942889E-4
18.22	8.033444483E-4	8.305061502E-4	1.025093050E-3
18.23	7.985836310E-4	8.209845819E-4	9.169658450E-4
18.240000000000002	2.760175448E-4	8.155973115E-4	-1.793766017E-6
18.25	3.583963205E-4	8.055226220E-4	-1.793766017E-6
18.26	-2.700260964E-4	8.009846159E-4	-1.793766017E-6
18.27	-3.716951724E-5	7.953730774E-4	-5.517230227E-4
18.28	8.185836901E-4	7.852990934E-4	1.325645639E-4
18.29	1.371494078E-3	1.333895018E-3	4.137767774E-4
18.3	1.201070689E-3	1.163471649E-3	5.698856248E-4
18.31	2.214689469E-4	7.450771452E-4	9.782060593E-4
18.32	9.770174473E-4	7.350031625E-4	1.564385794E-3
18.330000000000002	5.736499128E-4	1.318451419E-3	7.711596689E-4
18.34	3.971559961E-4	2.277294919E-3	5.990403593E-4
18.35	7.685836819E-4	2.622369769E-3	3.701218287E-4
18.36	1.595281471E-4	1.374036749E-3	6.135405936E-4
18.37	-8.112950662E-4	1.257216238E-3	3.556215960E-4
18.38	-5.315816005E-4	9.747229863E-4	-1.793766017E-6
18.39	-8.054993437E-4	1.882152431E-3	-1.793766017E-6
18.400000000000002	1.343046102E-4	1.903396417E-3	6.426424678E-4
18.41	7.985836310E-4	2.192772693E-3	3.264668563E-4
18.42	1.463186356E-4	2.497535857E-3	-6.607833197E-4
18.43	4.880248449E-4	1.811148302E-3	-9.817939639E-4
18.44	1.320712422E-4	8.107296396E-4	3.649734427E-4
18.45	1.169131541E-3	1.174731452E-3	2.975134854E-4
18.46	3.966445127E-4	1.456943944E-3	6.861960027E-4
18.47	-1.743209038E-4	1.443889146E-3	2.828567364E-4
18.48	-8.668908234E-4	1.419475067E-3	-1.793766017E-6
18.490000000000002	-4.315217884E-4	6.938462843E-4	1.417995120E-3
18.5	5.337748947E-4	1.130811403E-3	-1.932278830E-4
18.51	7.897251152E-5	6.591980627E-4	-2.573990800E-4
18.52	-1.639505444E-4	4.009845969E-4	-1.793766017E-6
18.53	5.623991293E-4	4.009845969E-4	-1.793766017E-6
18.54	1.529616363E-3	4.009845969E-4	-1.793766017E-6
18.55	1.743205142E-3	4.009845969E-4	-7.553434109E-4
18.56	9.701417522E-4	4.009845969E-4	-2.211139236E-4
18.57	-3.758880933E-6	4.009845969E-4	-1.793766017E-6
18.580000000000002	1.307538348E-3	4.009845969E-4	-1.793766017E-6
18.59	9.100632935E-4	4.089698057E-4	-1.793766017E-6
18.6	7.085836907E-4	4.109846032E-4	-7.917183588E-4
18.61	-8.048600471E-5	-3.699503291E-4	1.409819355E-3
18.62	-1.041244728E-3	2.472304721E-4	3.492970457E-4
18.63	-3.997116515E-4	4.209846095E-4	-1.793766017E-6
18.64	-1.042014458E-3	-3.812568425E-4	-1.793766017E-6
18.650000000000002	4.341321620E-4	2.871895016E-4	8.244109877E-4
18.66	7.300790178E-4	-3.754611470E-4	-6.887040669E-4
18.67	7.285836567E-4	-5.104354167E-4	-9.817939639E-4
18.68	-1.022174767E-4	-5.003611896E-4	7.144250799E-4
18.69	6.152151921E-4	-4.990153643E-4	9.782060593E-4
18.7	7.209793947E-4	-4.902132390E-4	1.155964659E-4
18.71	7.097075673E-4	-1.332246852E-3	-1.793766017E-6
18.72	-1.506260873E-4	-5.529552662E-4	8.753160603E-4
18.73	-1.117864622E-3	-3.048360128E-3	1.862705391E-3
18.740000000000002	5.630130815E-4	-2.419051565E-3	-7.170875095E-4
18.75	-1.031924586E-3	-3.172988193E-3	8.162352444E-4
18.76	-2.759039436E-4	-1.417990608E-3	-8.343234683E-4
18.77	-1.920947252E-4	-1.259693750E-3	-6.827895059E-5
18.78	-1.914163055E-4	-3.288548283E-4	-2.764088944E-3
18.79	7.271291893E-4	-1.168621837E-3	7.702663138E-4
18.8	1.704305396E-3	-1.209471803E-3	-8.923244164E-4
18.81	1.729345691E-3	-2.567326267E-4	-3.913004560E-5
18.82	7.689709546E-4	-2.093223329E-4	-1.793766017E-6
18.830000000000002	7.288166182E-4	-2.094053890E-3	-9.589637992E-4
18.84	-2.161541909E-4	-2.003345479E-4	-1.737385867E-5
18.85	7.204237321E-4	-1.690153894E-4	9.698761375E-4
18.86	-2.305095180E-4	8.000683691E-4	-8.680734864E-7
18.87	-2.292645639E-4	-1.122782090E-3	-1.793766017E-6
18.88	1.688309681E-3	-1.521639591E-4	-1.793766017E-6
18.89	1.647546387E-3	-1.057790802E-3	-1.793766017E-6
18.900000000000002	6.785836485E-4	8.404116365E-4	-2.986869550E-5
18.91	6.785836485E-4	7.863805054E-4	-9.817939639E-4
18.92	6.781491405E-4	-9.730254851E-5	-9.817939639E-4
18.93	6.685836655E-4	7.720250390E-4	-8.818348933E-4
18.94	6.125220093E-4	-8.295373762E-5	9.209764607E-4
18.95	-3.552381238E-4	8.209845819E-4	-1.793766017E-6
18.96	-1.188954531E-3	8.202526460E-4	6.993606684E-5
18.97	-1.158495504E-4	8.109845989E-4	8.202211708E-4
18.98	1.657702188E-3	8.101031272E-4	-8.954095655E-4
18.990000000000002	1.554008657E-3	8.009846159E-4	-1.793766017E-6
19.0	5.588655342E-4	7.999565907E-4	-1.793766017E-6
19.01	-3.114162995E-4	7.909845863E-4	-1.099284834E-4
19.02	-1.983862463E-4	7.898071919E-4	-7.510242577E-4
19.03	6.473322782E-4	7.809846033E-4	9.782060593E-4
19.04	7.644926727E-4	7.809846033E-4	9.782060593E-4
19.05	1.317111946E-3	7.795852607E-4	9.782060593E-4
19.06	-6.358117475E-4	7.695110246E-4	5.449819003E-4
19.07	-2.276769551E-3	9.112254187E-4	-1.506424719E-3
19.080000000000002	-1.777542599E-3	1.883532965E-3	9.782060593E-4
19.09	5.039905712E-4	2.502997744E-3	8.119161556E-4
19.1	-4.714147025E-4	1.849212099E-3	-1.793766017E-6
19.11	-9.016241253E-4	2.625449326E-3	-1.793766017E-6
19.12	6.866633200E-4	2.408949369E-3	-1.793766017E-6
19.13	8.700396240E-4	1.595001572E-3	1.936508314E-4
19.14	1.636515384E-3	1.366221519E-3	5.728164952E-4
19.150000000000002	1.622156798E-3	7.866448869E-4	-5.619042207E-4
19.16	1.168626126E-3	1.536552026E-3	5.438160241E-4
19.17	-3.391260428E-4	1.516404078E-3	-7.573488126E-4
19.18	-1.044495364E-4	1.725587076E-3	2.299014431E-4
19.19	3.944779421E-4	2.207124368E-3	7.392231538E-4
19.2	-9.009413858E-5	1.202121063E-3	-1.793766017E-6
19.21	3.801593332E-4	4.609846114E-4	-2.553936785E-4
19.22	1.822983671E-4	4.609846114E-4	-4.600940459E-4
19.23	1.593112155E-3	9.889776601E-4	9.782060593E-4
19.240000000000002	1.842736607E-3	1.837387421E-3	9.782060593E-4
19.25	1.950278782E-3	4.209846095E-4	6.954960552E-4
19.26	5.456255514E-4	4.180264847E-4	2.881022287E-4
19.27	8.328052416E-4	4.109846032E-4	6.809513065E-4
19.28	1.207185892E-3	4.109846032E-4	3.027111227E-4
19.29	2.299612418E-4	4.078029267E-4	3.545978383E-4
19.3	-1.056708189E-3	3.977278737E-4	-6.626344805E-4
19.31	-1.691935733E-3	3.909846139E-4	6.510252874E-4
19.32	2.856889121E-4	3.909846139E-4	1.290886815E-3
19.330000000000002	8.802427551E-4	3.875059404E-4	-1.793766017E-6
19.34	-3.878636491E-4	3.809846076E-4	3.463660646E-4
19.35	-3.777896703E-4	3.809846076E-4	6.227960981E-4
19.36	-1.615742066E-5	3.772839917E-4	3.608662988E-4
19.37	5.885836617E-4	3.709846013E-4	6.082958653E-4
19.38	2.152131345E-4	1.463257399E-6	3.754258907E-4
19.39	-7.757006817E-7	-5.811671044E-4	9.782060593E-4
19.400000000000002	-1.830517210E-4	-5.650172624E-4	5.863912583E-4
19.41	-9.423513076E-4	-5.508711861E-4	-7.999237343E-4
19.42	-7.595019496E-4	-9.371009928E-4	-1.555414768E-3
19.43	-1.317195351E-3	-1.085360939E-3	-1.544851722E-4
19.44	-4.782425156E-4	-9.270128449E-4	1.364428252E-4
19.45	1.052433767E-3	-1.460276183E-3	-5.535741603E-4
19.46	1.589696452E-3	-1.009101984E-3	-1.793766017E-6
19.47	7.021788431E-4	-1.326385046E-3	-1.793766017E-6
19.48	-3.568247735E-4	-1.919862172E-3	-1.793766017E-6
19.490000000000002	1.012096239E-4	-1.369682835E-3	-1.793766017E-6
19.5	6.138425984E-4	-8.896497412E-4	4.628307146E-4
19.51	6.037686348E-4	-8.264448978E-4	5.063314642E-4
19.52	1.293107928E-4	-1.783399946E-3	-1.793766017E-6
19.53	-3.564540880E-4	-2.249166458E-3	4.845033765E-4
19.54	-8.349673665E-4	-1.725316356E-3	-9.044020694E-6
19.55	-3.146201406E-4	-1.719745740E-3	-4.808398819E-4
19.56	6.333971529E-4	-1.167269726E-3	-1.793766017E-6
19.57	1.235750555E-4	-7.187635081E-4	5.137357872E-4
19.580000000000002	6.981396980E-4	-6.462356181E-4	-5.901331580E-4
19.59	1.587766658E-3	-7.082282971E-4	-9.017340158E-4
19.6	1.030338747E-3	-8.542026865E-5	-1.076353785E-3
19.61	4.508243275E-5	-2.815752009E-4	-8.725620383E-4
19.62	-3.814162970E-4	-1.122119423E-3	-1.793766017E-6
19.63	1.719751950E-4	-7.937446060E-6	-1.793766017E-6
19.64	5.885836617E-4	2.662608638E-4	-5.680743569E-4
19.650000000000002	-5.409204143E-4	-1.448677368E-4	-4.082632615E-4
19.66	-7.547092425E-4	-1.430890531E-4	-1.793766017E-6
19.67	-3.574175646E-4	4.431067756E-4	-5.899173105E-4
19.68	8.174879243E-4	8.309846115E-4	-9.817939639E-4
19.69	1.572432196E-3	8.248331691E-4	-3.789542692E-4
19.7	3.610452029E-4	8.147601675E-4	6.081997807E-4
19.71	2.331736103E-4	8.046867978E-4	9.782060593E-4
19.72	1.206744859E-3	7.946118011E-4	3.536721656E-4
19.73	9.202962561E-4	7.845372499E-4	-6.336339373E-4
19.740000000000002	-6.835113284E-4	7.809846033E-4	-3.427036584E-4
19.75	-6.533104143E-5	7.743892749E-4	-1.793766017E-6
19.76	5.852430038E-4	7.643142455E-4	6.518993931E-4
19.77	-6.892140488E-5	7.609845907E-4	9.782060593E-4
19.78	2.731909256E-4	7.473469313E-4	9.782060593E-4
19.79	-8.312571816E-5	7.409845781E-4	9.782060593E-4
19.8	2.943620126E-4	1.416762969E-3	9.782060593E-4
19.81	-7.773252706E-4	1.013948593E-3	-4.017844835E-4
19.82	4.307441600E-5	7.209846121E-4	-2.845484624E-4
19.830000000000002	-8.883282561E-5	7.137947299E-4	-1.793766017E-6
19.84	-3.614163077E-4	7.109845825E-4	-1.793766017E-6
19.85	-3.540780381E-4	1.408119737E-3	-1.793766017E-6
19.86	1.078921905E-3	9.346988230E-4	-1.793766017E-6
19.87	1.263325098E-4	6.809845869E-4	7.318175148E-4
19.88	-1.087196242E-3	6.734243921E-4	9.782060593E-4
19.89	-5.655126585E-4	6.709846039E-4	2.299379307E-4
19.900000000000002	-3.314163121E-4	1.403410133E-3	7.537609173E-4
19.91	4.236049129E-4	8.503958800E-4	2.154012322E-4
19.92	-1.157559551E-4	1.393181913E-3	-7.718489748E-4
19.93	4.400255034E-4	2.354494679E-3	-9.817939639E-4
19.94	6.385836699E-4	9.738683562E-4	-1.972385168E-4
19.95	1.414351807E-3	1.356752792E-3	-7.937239773E-4
19.96	7.912186410E-4	1.532829381E-3	-1.825839895E-4
19.97	6.003545057E-4	7.162955088E-4	-8.082538284E-4
19.98	5.902805030E-4	1.338088275E-3	-1.680837497E-4
19.990000000000002	-1.019827991E-3	6.800244387E-4	-1.793766017E-6
20.0	3.081020025E-4	5.125334683E-4	-8.300042200E-4
20.01	6.085836743E-4	4.939343740E-4	-1.463334249E-4
20.02	-2.256590196E-4	4.823841580E-4	8.410492334E-4
20.03	4.713493076E-4	4.723099534E-4	-7.220237604E-4
20.04	5.898350432E-4	4.709845944E-4	7.329360189E-4
20.05	-2.672088351E-4	4.709845944E-4	-7.510242344E-4
20.06	1.344520916E-3	4.620880257E-4	-9.817939639E-4
20.07	6.704977101E-4	4.520140407E-4	-9.817939639E-4
20.080000000000002	5.595376947E-4	4.419386296E-4	7.912161327E-4
20.09	-3.169459174E-4	4.409845988E-4	1.871975897E-3
20.1	-3.922222205E-4	4.317905115E-4	1.561662477E-4
20.11	-3.821482356E-4	4.217165464E-4	-1.793766017E-6
20.12	-3.814162970E-4	4.116425605E-4	-9.173141743E-4
20.13	-3.720002896E-4	4.109846032E-4	-5.902347933E-5
20.14	5.491141466E-4	4.014945925E-4	9.282265285E-4
20.150000000000002	5.890196780E-4	4.105485880E-4	9.782060593E-4
20.16	-3.464461615E-4	4.109846032E-4	-9.111326553E-4
20.17	1.493293245E-3	4.012710759E-4	-2.986869833E-5
20.18	1.538796176E-3	4.009845969E-4	-9.609691042E-4
20.19	1.518860654E-3	-5.457177009E-4	9.510566794E-4
20.2	-4.188315793E-4	-1.512819716E-3	-9.691447235E-4
20.21	-4.105000691E-4	-5.290059141E-4	-3.645151429E-6
20.22	5.503387430E-4	-5.271753006E-4	-1.953463868E-3
20.23	-4.266783492E-4	-1.478856350E-3	-9.817939639E-4
20.240000000000002	-1.325988960E-3	-1.468782386E-3	-9.589638015E-4
20.25	5.785836787E-4	-1.458708423E-3	-3.187400128E-5
20.26	5.416342086E-4	-1.447872612E-3	-9.444635632E-4
20.27	-3.472907408E-4	-1.462231095E-3	-1.793766017E-6
20.28	5.278028236E-4	-2.264279794E-3	-1.793766017E-6
20.29	-2.647596078E-4	-5.056720583E-4	-6.102878208E-5
20.3	1.480741745E-3	-2.316980126E-3	-8.488238041E-4
20.31	5.485836831E-4	-2.140792388E-3	7.570003523E-4
20.32	5.477572999E-4	-4.785068749E-4	-1.880808488E-3
20.330000000000002	2.774786886E-4	-2.246314244E-3	-9.817939639E-4
20.34	-2.076863478E-3	-2.122540301E-3	-9.817939639E-4
20.35	4.577935365E-4	-1.024285421E-3	-8.789040141E-4
20.36	-3.991685307E-4	6.119684068E-4	-1.119338740E-4
20.37	-2.652239949E-4	-1.328230650E-4	-9.817939639E-4
20.38	5.885836617E-4	4.742476485E-4	-9.817939639E-4
20.39	5.872378436E-4	-1.085779173E-3	-8.499035345E-4
20.400000000000002	7.163044311E-4	-2.290153806E-4	-1.409343506E-4
20.41	1.399181951E-3	-8.558973990E-5	-8.353802558E-4
20.42	3.963580070E-4	7.278459194E-4	-1.555888129E-4
20.43	-4.197729837E-4	7.093412673E-4	-1.142839103E-3
20.44	-4.096990123E-4	6.992673040E-4	-1.456908057E-3
20.45	-2.294534513E-4	6.909846165E-4	8.026606879E-4
20.46	5.585836661E-4	6.891193509E-4	-1.845892924E-4
20.47	1.823708792E-4	6.809845869E-4	-1.171839568E-3
20.48	-1.180094128E-3	6.789713687E-4	-1.764498098E-3
20.490000000000002	-3.793287691E-4	6.688970663E-4	-7.772158370E-4
20.5	-5.790410425E-4	6.588218204E-4	-1.793766017E-6
20.51	-6.805255083E-4	6.509845913E-4	2.174065344E-4
20.52	1.576272531E-3	6.486735121E-4	5.252337618E-4
20.53	1.566197357E-3	6.385983272E-4	-7.479390567E-4
20.54	1.794730915E-3	8.695917021E-4	-4.839277618E-4
20.55	1.778930190E-3	1.350211639E-3	-1.961793789E-3
20.56	-6.518050309E-4	8.639815812E-4	-1.961793789E-3
20.57	-1.095836914E-3	1.315405251E-3	-1.698897111E-3
20.580000000000002	-1.067137711E-4	5.882272866E-4	-9.817939639E-4
20.59	3.168456333E-4	8.527226389E-4	-1.259193159E-3
20.6	-3.714163140E-4	1.253364188E-3	-1.677078700E-3
20.61	-8.547173686E-5	1.128830972E-3	-1.273695675E-3
20.62	2.923771726E-4	1.889410587E-3	-1.363273428E-3
20.63	5.287315543E-4	5.209845793E-4	-3.083041041E-4
20.64	1.897861209E-3	8.283417176E-4	-9.817939639E-4
20.650000000000002	2.407987713E-4	1.474432324E-3	-9.817939639E-4
20.66	-8.640378029E-5	1.457633942E-3	-9.817939639E-4
20.67	5.551600929E-4	1.776224570E-3	-6.462831463E-4
20.68	-4.693665336E-4	2.054671628E-3	-3.446086967E-4
20.69	-1.314493604E-3	1.754003583E-3	-1.685697665E-3
20.7	5.685836491E-4	2.009922041E-3	-2.233316265E-3
20.71	9.258069725E-4	1.012598011E-3	-1.346459393E-3
20.72	7.923425476E-4	3.871895544E-4	-2.337504586E-3
20.73	-4.114163159E-4	3.809846076E-4	-2.568759247E-3
20.740000000000002	3.495862753E-4	3.809846076E-4	-1.961793789E-3
20.75	1.120838048E-3	3.809846076E-4	-1.961793789E-3
20.76	5.326762181E-4	3.809846076E-4	-1.560723520E-3
20.77	9.428011665E-4	3.851518012E-4	-1.394345864E-3
20.78	1.500099470E-3	3.867425212E-4	-1.971793959E-3
20.79	1.069990665E-3	3.809846076E-4	-1.971793959E-3
20.8	9.283432511E-5	3.765954361E-4	-1.107127627E-3
20.81	-1.840514854E-5	3.665205660E-4	-8.812082575E-4
20.82	7.839640927E-5	3.564465895E-4	-1.971793959E-3
20.830000000000002	-1.341531104E-3	3.509846120E-4	-2.423769472E-3
20.84	-1.462820618E-3	3.509846120E-4	-2.028511735E-3
20.85	3.561856871E-5	3.462238289E-4	-9.817939639E-4
20.86	-3.993475691E-4	3.409846057E-4	-1.455594208E-3
20.87	-4.393074892E-4	3.409846057E-4	-1.961793789E-3
20.88	5.585836661E-4	-1.373528769E-4	-1.961793789E-3
20.89	1.534672024E-3	-1.104530850E-3	-1.466163491E-3
20.900000000000002	4.870093489E-4	-1.563618646E-3	-4.788341646E-4
20.91	-3.910070923E-4	-1.038810795E-3	-1.793766017E-6
20.92	-4.705000600E-4	-5.637351428E-4	-1.793766017E-6
20.93	-8.512762362E-4	-5.536604145E-4	-5.265789864E-4
20.94	-3.859873689E-4	-1.070192696E-3	-9.817939639E-4
20.95	-9.151987124E-4	-1.503512376E-3	-9.817939639E-4
20.96	-2.583453483E-4	-2.569778618E-3	-2.074864923E-3
20.97	6.044897259E-5	-1.752007667E-3	-1.280437107E-3
20.98	-3.556905490E-4	-1.018687837E-3	-1.793766017E-6
20.990000000000002	-3.456168019E-4	-1.423215835E-3	-1.138494971E-3
21.0	2.224627218E-4	-1.407267878E-3	-2.537420430E-3
21.01	6.245320456E-4	-1.381170235E-3	-6.100326669E-4
21.02	6.285836869E-4	-1.356970648E-3	3.880157330E-4
21.03	3.114313404E-5	-1.336822720E-3	-1.793766017E-6
21.04	8.458128525E-4	-1.915287362E-3	-1.793766017E-6
21.05	3.768853097E-4	-1.048579376E-3	-6.138889320E-4
21.06	2.552891589E-4	-3.090153611E-4	-9.817939639E-4
21.07	6.021898558E-4	-3.090153611E-4	-9.817939639E-4
21.080000000000002	-2.879391175E-5	-3.090153611E-4	-1.615639261E-3
21.09	2.565956013E-4	-3.024735813E-4	-1.961793789E-3
21.1	5.885836617E-4	3.428154805E-4	-1.313346221E-3
21.11	5.818923463E-4	-6.204414180E-4	-3.260438085E-4
21.12	-7.271206028E-4	-5.960152460E-4	-1.793766017E-6
21.13	-1.775506062E-5	-9.287477786E-4	-1.793766017E-6
21.14	-7.200340279E-5	1.121587745E-4	-6.792942622E-4
21.150000000000002	9.841101381E-4	4.020861899E-5	-9.817939639E-4
21.16	1.987049402E-4	4.288627302E-4	-9.817939639E-4
21.17	-1.063640732E-3	1.876016462E-5	-9.817939639E-4
21.18	-6.347611882E-4	4.332181832E-4	-2.751387114E-4
21.19	3.306346347E-4	7.009845995E-4	-1.793766017E-6
21.2	-1.178542110E-4	6.936258840E-4	-7.229492583E-4
21.21	3.421236918E-4	6.835518860E-4	4.750169354E-4
21.22	-1.320585243E-4	6.734779101E-4	9.782060593E-4
21.23	1.099233654E-3	6.634039113E-4	-5.076053111E-4
21.240000000000002	8.106539305E-4	6.533287314E-4	-9.817939639E-4
21.25	-1.635160869E-4	6.509845913E-4	-2.242336144E-4
21.26	-1.130618192E-3	6.431804180E-4	-1.793766017E-6
21.27	1.869482304E-4	6.331064173E-4	-7.738543553E-4
21.28	-1.727746874E-4	6.230324441E-4	-9.817939639E-4
21.29	4.071182312E-4	6.209845957E-4	-9.817939639E-4
21.3	-1.791493054E-4	6.128832241E-4	-1.878580353E-4
21.31	-3.614163077E-4	6.109846127E-4	-1.604224052E-3
21.32	-1.161631931E-3	1.394700895E-3	-3.448632034E-4
21.330000000000002	2.916907779E-4	1.544337311E-3	-8.175092997E-4
21.34	-1.959842209E-4	7.096214857E-4	-1.804759337E-3
21.35	-3.429447083E-4	5.425130087E-4	-1.131578333E-3
21.36	-3.328693958E-4	5.409845919E-4	-9.817939639E-4
21.37	1.332460486E-3	1.368612437E-3	-9.817939639E-4
21.38	7.464634315E-4	1.492289455E-3	-9.817939639E-4
21.39	6.010455163E-4	1.464677350E-3	-1.224234203E-4
21.400000000000002	-1.099284945E-3	1.434455378E-3	8.648265301E-4
21.41	4.174078545E-4	5.571139944E-4	-7.695351753E-4
21.42	6.195926329E-4	4.599756382E-4	-1.862914493E-3
21.43	6.185836573E-4	1.331225416E-3	-1.073423104E-3
21.44	-2.588974075E-4	2.280184742E-3	-8.603181829E-5
21.45	5.431798703E-4	5.457194658E-4	-1.793766017E-6
21.46	-2.731147053E-4	3.909846139E-4	9.084815287E-4
21.47	-3.320538056E-4	3.816221026E-4	-8.568450269E-4
21.48	5.839228780E-4	3.809846076E-4	-5.701808343E-5
21.490000000000002	-1.196936402E-3	3.714741346E-4	-9.338197218E-4
21.5	-3.329714812E-4	3.709846013E-4	-9.817939639E-4
21.51	-1.228431429E-3	3.709846013E-4	-9.817939639E-4
21.52	-2.977519361E-4	3.709846013E-4	-2.786339276E-5
21.53	-2.616083496E-4	3.709846013E-4	-1.793766017E-6
21.54	-2.515343634E-4	3.709846013E-4	-1.793766017E-6
21.55	2.635802291E-3	3.709846013E-4	-1.793766017E-6
21.56	-2.813848227E-4	3.709846013E-4	-4.878923103E-6
21.57	-2.714162976E-4	3.710900629E-4	-9.921291879E-4
21.580000000000002	-2.714162976E-4	3.635786593E-4	-1.944208401E-3
21.59	-2.714162976E-4	-5.644333126E-4	-9.569584962E-4
21.6	-2.399854799E-4	3.806572030E-4	-3.387939972E-5
21.61	6.500507490E-4	3.709846013E-4	-9.424582565E-4
21.62	-3.170514272E-4	3.248741055E-4	4.479208828E-5
21.63	-1.177022433E-3	-5.979165145E-4	8.705172399E-4
21.64	-2.407914019E-4	-5.783904680E-4	-9.205536389E-4
21.650000000000002	-9.653202538E-5	-5.012237953E-4	-7.028425334E-5
21.66	1.621297323E-3	4.009845969E-4	-9.060533992E-4
21.67	7.798806820E-4	4.009845969E-4	-8.478449164E-5
21.68	1.568342873E-3	2.232654949E-4	-8.915531594E-4
21.69	7.740849862E-4	-1.429534868E-3	9.569716086E-5
21.7	1.222760537E-3	-6.316349538E-4	6.639335536E-4
21.71	-1.917268714E-3	-1.597727697E-3	-1.849648410E-3
21.72	3.164886182E-4	-2.317183167E-3	-9.817939639E-4
21.73	-1.966792632E-3	-1.436430297E-3	-8.551283706E-4
21.740000000000002	-3.827306061E-4	-1.548961775E-3	-1.358438056E-4
21.75	-1.209974471E-3	-2.224831468E-3	-9.817939639E-4
21.76	-1.051350253E-3	-1.364467881E-3	-8.332436846E-4
21.77	-2.098265054E-4	-1.335835772E-3	-1.575941989E-4
21.78	-1.997525205E-4	-1.315687767E-3	-9.817939639E-4
21.79	-1.896785448E-4	-1.295539838E-3	-1.152094570E-3
21.8	-5.677337356E-6	-1.101464665E-3	-1.961793789E-3
21.81	6.075542311E-4	-1.161002325E-4	-1.592192041E-3
21.82	-3.615374647E-4	4.828234480E-4	-1.938749897E-4
21.830000000000002	-1.336801068E-3	-4.844001859E-4	-1.181249264E-3
21.84	-1.890492328E-3	-8.398228683E-4	-1.341677372E-3
21.85	-4.682824879E-4	6.909846165E-4	5.502949084E-4
21.86	1.360617632E-3	2.530186297E-4	-9.817939639E-4
21.87	-5.938997864E-4	-1.020441229E-3	-9.817939639E-4
21.88	-2.074200799E-3	-3.571459581E-5	-9.817939639E-4
21.89	-1.562948116E-3	7.009845995E-4	-1.224788204E-3
21.900000000000002	-3.292220335E-4	7.009845995E-4	-1.711433411E-3
21.91	-7.911360760E-4	4.459625639E-4	-1.239445051E-3
21.92	2.008943793E-4	-6.704681237E-6	-1.961793789E-3
21.93	6.390968254E-4	6.982063896E-4	-1.417263711E-3
21.94	-5.856456387E-5	6.881328612E-4	-1.793766017E-6
21.95	5.130319443E-4	6.809845869E-4	-1.793766017E-6
21.96	1.293767960E-3	6.779855371E-4	-1.793766017E-6
21.97	-6.834217341E-5	6.648363243E-4	2.994716899E-4
21.98	-5.826819194E-5	6.509845913E-4	3.611747593E-4
21.990000000000002	2.579052181E-4	6.509845913E-4	-1.297559654E-3
22.0	5.888638484E-4	6.476885165E-4	-1.315762018E-3
22.01	2.621604528E-4	6.376140069E-4	-1.793766017E-6
22.02	8.951380373E-4	9.617637062E-4	-1.793766017E-6
22.03	8.850640735E-4	1.242544490E-3	-6.916347594E-4
22.04	5.336002424E-4	9.495616123E-4	-1.609623256E-3
22.05	-4.408936312E-4	1.563648318E-3	-9.817939639E-4
22.06	-3.389954227E-4	1.180416355E-3	-9.817939639E-4
22.07	5.021426727E-4	1.297683752E-3	-6.077186788E-4
22.080000000000002	2.782357764E-4	2.479311355E-3	-3.831191819E-4
22.09	4.739732570E-4	2.068444034E-3	-1.370369341E-3
22.1	2.763311688E-4	1.071119987E-3	-7.743171276E-4
22.11	8.444706290E-4	4.850976109E-4	5.751304480E-4
22.12	3.036577994E-5	8.929996772E-4	-1.793766017E-6
22.13	-2.644810757E-4	1.033254376E-3	-1.793766017E-6
22.14	8.442471129E-4	4.666480682E-4	-4.267741481E-4
22.150000000000002	4.151742804E-4	4.565740941E-4	-5.495634561E-4
22.16	3.135797062E-4	1.325461173E-3	-8.807548427E-4
22.17	4.064114834E-4	1.949695469E-3	-1.515063213E-3
22.18	-1.214163080E-4	1.401718205E-3	-9.817939639E-4
22.19	-1.214163080E-4	1.838245642E-3	-9.817939639E-4
22.2	3.376549566E-4	1.862785273E-3	-9.817939639E-4
22.21	8.385836561E-4	8.650991820E-4	-5.059084847E-4
22.22	3.603781227E-4	3.560546493E-4	-4.849293658E-4
22.23	-1.264123762E-4	3.509846120E-4	-1.472179496E-3
22.240000000000002	-1.214163080E-4	3.509846120E-4	-2.459429627E-3
22.25	3.783962734E-4	3.509846120E-4	-1.931863343E-3
22.26	8.381287542E-4	3.509846120E-4	-2.006374442E-3
22.27	3.196461956E-4	3.456831765E-4	-1.902713278E-3
