Time (s)	Acceleration x (m/s^2)	Acceleration y (m/s^2)	Acceleration z (m/s^2)
0.0	-3.487027168E-3	-1.238595145E-1	-1.111453723E-4
0.01	-8.775248754E-5	9.611925774E-3	-2.898395563E-3
0.02	-9.638283526E-3	6.008491236E-3	-3.841849297E-3
0.03	-1.400377570E-2	2.138556907E-2	-1.846091494E-3
0.04	-2.564079362E-2	3.029805745E-2	1.134009990E-4
0.05	6.477271464E-3	4.009828455E-2	-7.490061202E-4
0.06	-8.170840513E-3	2.372889538E-2	-1.378935433E-3
0.07	-1.800671323E-2	1.256428037E-2	5.521047902E-4
0.08	-2.524098467E-5	6.193121011E-3	-2.388365191E-4
0.09	4.712778870E-3	2.362414243E-2	8.229358279E-4
0.1	1.190028668E-2	3.738367413E-2	1.972285813E-3
0.11	2.578585105E-2	5.229202854E-2	3.719128197E-3
0.12	1.428885924E-2	6.220177311E-2	7.690093016E-3
0.13	-1.083823054E-2	6.059980201E-2	1.051841191E-2
0.14	-2.775030399E-2	4.667469244E-2	1.301534266E-2
0.15	-3.968532490E-2	4.026566799E-2	1.397724211E-2
0.16	-4.502772627E-2	3.889488995E-2	1.702188595E-2
0.17	-2.140474486E-2	4.162930302E-2	1.665559125E-2
0.18	-1.102899169E-2	3.171282416E-2	1.718369006E-2
0.19	-1.933920337E-2	9.128421949E-3	1.796012875E-2
0.2	-8.196636916E-3	-1.648233249E-2	1.737221287E-2
0.21	-7.992103240E-3	-3.351472619E-2	1.713874838E-2
0.22	-3.766140057E-3	-2.900720401E-2	1.544579532E-2
0.23	1.588297042E-2	-6.571176217E-3	1.537032241E-2
0.24	2.266344254E-2	1.959423392E-2	1.550512736E-2
0.25	7.563901539E-3	3.634127840E-2	1.633184475E-2
0.26	-1.344349514E-3	4.677117632E-2	1.603184137E-2
0.27	-1.938575224E-2	4.931395829E-2	1.476528071E-2
0.28	-3.609508783E-2	5.317600721E-2	1.625270437E-2
0.29	-2.409665938E-2	5.752973295E-2	1.807863067E-2
0.3	-5.039599660E-3	6.059378671E-2	1.621148312E-2
0.31	-2.502229510E-3	4.474180353E-2	1.444596435E-2
0.32	8.426605584E-3	1.055775971E-2	1.306132881E-2
0.33	6.091273968E-3	-3.703720954E-2	1.202698894E-2
0.34	-5.815939130E-5	-8.093642637E-2	1.087345195E-2
0.35000000000000003	8.025737880E-3	-1.156719058E-1	9.832369049E-3
0.36	1.523894744E-2	-1.374283187E-1	9.646386129E-3
0.37	1.271722978E-2	-1.564344767E-1	1.032578123E-2
0.38	9.070720005E-3	-1.790420931E-1	1.104601786E-2
0.39	-4.872192313E-3	-2.037583752E-1	1.022122643E-2
0.4	-2.287777424E-2	-2.203093095E-1	9.600728853E-3
0.41000000000000003	-1.938622532E-2	-1.781675920E-1	7.069979944E-3
0.42	-2.316777126E-3	-8.223904821E-2	1.490001839E-3
0.43	5.367473877E-3	-1.088825052E-1	2.455775374E-3
0.44	1.706683862E-2	-1.275000070E-1	3.931058349E-3
0.45	1.968296603E-2	-1.435695807E-1	5.853197074E-3
0.46	9.749093978E-3	-1.556699147E-1	6.524753860E-3
0.47000000000000003	9.314376630E-3	-1.616156777E-1	6.902502830E-3
0.48	8.996796060E-3	-1.626266688E-1	8.671174341E-3
0.49	8.742978897E-3	-1.591622397E-1	8.468860560E-3
0.5	8.580708646E-3	-1.627377062E-1	8.299169107E-3
0.51	3.697388157E-3	-1.766481593E-1	8.570631314E-3
0.52	-9.552389781E-3	-1.990867454E-1	1.054234222E-2
0.53	-1.756793570E-2	-2.204090245E-1	1.275624905E-2
0.54	-1.427200301E-2	-2.248362155E-1	1.303762491E-2
0.55	-5.907538899E-3	-2.152432366E-1	1.242031190E-2
0.56	8.537919253E-3	-2.066896680E-1	1.060145440E-2
0.5700000000000001	1.902194710E-2	-1.964764340E-1	1.009199647E-2
0.58	1.475360487E-2	-1.920318168E-1	8.999603465E-3
0.59	9.366713791E-3	-1.884546371E-1	8.764209104E-3
0.6	5.359747302E-3	-1.794362962E-1	9.214324023E-3
0.61	2.942294204E-3	-1.643067317E-1	8.674465722E-3
0.62	5.607637827E-3	-1.469634897E-1	7.601150798E-3
0.63	7.668726983E-3	-1.366611756E-1	6.996129539E-3
0.64	5.331573324E-4	-1.398902019E-1	6.930356132E-3
0.65	-9.558302219E-3	-1.532343103E-1	5.933955857E-3
0.66	-1.164712949E-2	-1.653488519E-1	4.399210103E-3
0.67	-8.290028890E-3	-1.581092891E-1	3.853992050E-3
0.68	1.415442052E-3	-1.413557409E-1	2.340156081E-3
0.6900000000000001	1.303770720E-2	-1.278045310E-1	1.877492492E-3
0.7000000000000001	1.415666143E-2	-9.811906891E-2	2.537925869E-3
0.71	8.405447769E-3	-6.902393925E-2	1.167590253E-3
0.72	1.805023895E-3	-4.634238050E-2	1.414469621E-4
0.73	-5.782969018E-3	-1.177833013E-2	7.634700479E-5
0.74	-7.500330228E-3	3.321809522E-2	2.688336254E-5
0.75	-4.313557131E-3	7.981132754E-2	-7.845159254E-6
0.76	-5.032305752E-3	1.198563770E-1	3.284329603E-3
0.77	-7.695801078E-3	1.446422407E-1	2.461047241E-3
0.78	-1.008226698E-2	1.524720423E-1	-1.217444762E-3
0.79	-1.231243407E-2	1.521253958E-1	-4.935924513E-3
0.8	-8.045902175E-3	1.392101565E-1	4.084203679E-3
0.81	3.036603865E-3	1.284834793E-1	-1.908835036E-3
0.8200000000000001	8.691135624E-3	1.205006813E-1	-6.129776605E-3
0.8300000000000001	7.516745917E-3	9.624177417E-2	-2.303432946E-3
0.84	3.660002275E-3	7.469229447E-2	1.186521473E-3
0.85	-7.215904523E-3	6.337803238E-2	2.359044711E-3
0.86	-1.366125368E-2	6.233680231E-2	5.080900439E-3
0.87	-1.099354466E-2	7.589282462E-2	6.832396441E-3
0.88	-7.148934960E-3	9.842142220E-2	6.822321904E-3
0.89	-4.666485733E-3	1.218995152E-1	8.761114552E-3
0.9	-3.873543742E-3	1.400283570E-1	7.794843648E-3
0.91	-6.410411078E-3	1.541399123E-1	8.149449196E-3
0.92	-8.247914543E-3	1.639508892E-1	8.795682482E-3
0.93	-2.473753262E-3	1.654751363E-1	9.040432958E-3
0.9400000000000001	3.047859213E-3	1.751555155E-1	8.430189235E-3
0.9500000000000001	7.055040230E-3	1.829630098E-1	8.097702185E-3
0.96	6.847786437E-3	1.797234008E-1	7.383448068E-3
0.97	-1.446756227E-3	1.671704527E-1	6.407678467E-3
0.98	-1.013780910E-2	1.506115012E-1	5.433302608E-3
0.99	-1.436880259E-2	1.376048206E-1	6.616580956E-3
1.0	-1.287777779E-2	1.304111800E-1	7.153700771E-3
1.01	-6.894757978E-3	1.261344648E-1	6.446728096E-3
1.02	-6.675171858E-4	1.207993870E-1	6.231566803E-3
1.03	6.582945517E-4	9.970407145E-2	5.222041776E-3
1.04	-2.341195236E-3	8.560480748E-2	4.823943235E-3
1.05	-2.414330959E-3	7.762719290E-2	3.216841026E-3
1.06	5.433032557E-4	5.999683712E-2	3.351115094E-3
1.07	2.950940354E-3	5.415725230E-2	2.547787280E-3
1.08	7.383298228E-3	4.836723450E-2	2.170587406E-3
1.09	5.274247563E-3	2.952228142E-2	6.744441308E-4
1.1	-3.254264702E-3	3.084668183E-3	2.598626155E-3
1.11	-8.063557684E-3	-2.660420426E-2	1.395220105E-3
1.12	-1.019667156E-2	-5.548732156E-2	1.394052915E-4
1.1300000000000001	-6.252744962E-3	-7.775152877E-2	-9.302641173E-4
1.1400000000000001	2.940494626E-3	-1.030095433E-1	-1.160380485E-3
1.1500000000000001	7.868886043E-3	-1.274506038E-1	1.287258406E-3
1.16	7.049525152E-3	-1.240456005E-1	1.838006033E-3
1.17	6.275875282E-3	-1.480873156E-1	2.761999172E-3
1.18	2.137987811E-3	-1.632850045E-1	3.800935131E-3
1.19	6.179435641E-4	-1.410618135E-1	2.957329197E-3
1.2	4.198463629E-3	-1.310151608E-1	4.547988508E-3
1.21	5.694836287E-3	-1.198496743E-1	4.776817500E-3
1.22	4.092415359E-3	-8.463964991E-2	4.869409988E-3
1.23	-2.048619999E-3	-7.768419692E-2	6.576949560E-3
1.24	-5.976314229E-3	-7.223315287E-2	7.622392698E-3
1.25	-8.781231178E-3	-7.345946848E-2	9.517245454E-3
1.26	-3.029481297E-3	-5.936590250E-2	9.705611594E-3
1.27	7.592361867E-3	-6.894712858E-2	8.747305086E-3
1.28	7.310375135E-3	-8.989320035E-2	7.748252969E-3
1.29	7.090622131E-3	-1.002376924E-1	7.823329231E-3
1.3	6.388355097E-3	-1.397313978E-1	8.687478646E-3
1.31	-1.222162252E-4	-1.747522068E-1	9.642531799E-3
1.32	1.466219749E-3	-1.789816972E-1	1.080530001E-2
1.33	5.540181869E-3	-1.943889419E-1	9.752923047E-3
1.34	4.727629285E-3	-2.010945035E-1	8.714367397E-3
1.35	2.515237943E-3	-1.777350334E-1	8.006562471E-3
1.36	-1.283754852E-3	-1.754271101E-1	6.897354159E-3
1.37	-4.065132163E-3	-1.619146416E-1	7.795085928E-3
1.3800000000000001	-2.620494908E-3	-1.219261106E-1	8.130492776E-3
1.3900000000000001	4.206382208E-3	-9.736233835E-2	6.985689902E-3
1.4000000000000001	8.020990746E-3	-7.590502076E-2	6.848092446E-3
1.41	8.826241896E-3	-5.682417136E-2	5.723521384E-3
1.42	5.932787235E-3	-3.488538346E-2	3.151835751E-3
1.43	5.686125177E-4	-3.586701679E-2	3.023943429E-3
1.44	-1.124703958E-3	-3.234836344E-2	2.891761607E-3
1.45	-2.439408809E-3	-1.972090435E-2	2.185896717E-3
1.46	-2.176518920E-3	-1.064855890E-2	2.993839432E-3
1.47	-3.898327227E-4	-2.801967251E-3	2.934304718E-3
1.48	-1.598362058E-3	1.088675004E-2	2.983449035E-3
1.49	-5.288301934E-3	2.317462876E-2	3.742920097E-3
1.5	-6.650429988E-3	4.240925706E-2	2.735522146E-3
1.51	-3.775566566E-3	6.562311945E-2	1.847647000E-3
1.52	-1.262350768E-3	9.648857576E-2	1.713288588E-3
1.53	4.008520403E-3	1.242028052E-1	1.123172541E-3
1.54	4.407956071E-3	1.430112036E-1	2.831747586E-3
1.55	8.961539320E-4	1.362112573E-1	3.108800728E-3
1.56	-3.660137456E-3	1.441293903E-1	4.203559114E-3
1.57	-6.101818477E-3	1.425626487E-1	6.208989651E-3
1.58	-5.738358782E-3	1.255699278E-1	7.937185775E-3
1.59	-3.056636731E-3	1.257983502E-1	7.004446189E-3
1.6	-1.627109105E-3	1.151610214E-1	7.199657006E-3
1.61	-2.365456244E-3	9.321417152E-2	8.482924739E-3
1.62	-3.287269614E-3	8.548484672E-2	9.094563341E-3
1.6300000000000001	-3.383813111E-3	8.082306994E-2	9.187694114E-3
1.6400000000000001	-2.795366650E-3	8.161954453E-2	9.968364628E-3
1.6500000000000001	4.156425280E-4	8.191684863E-2	1.040531658E-2
1.6600000000000001	3.376720516E-3	1.003443188E-1	1.102563688E-2
1.67	2.187402097E-3	1.171007332E-1	1.081948534E-2
1.68	-2.644467661E-3	1.256868744E-1	1.011742978E-2
1.69	-6.900850429E-3	1.462408444E-1	9.195786390E-3
1.7	-8.692351963E-3	1.648553938E-1	8.986294848E-3
1.71	-8.495736249E-3	1.731195517E-1	8.601563215E-3
1.72	-4.731457505E-3	1.905120726E-1	8.377363400E-3
1.73	-2.215797908E-3	1.935621775E-1	8.436483601E-3
1.74	-2.440529584E-3	1.726765913E-1	8.815126754E-3
1.75	-2.295670353E-3	1.476086701E-1	8.248526840E-3
1.76	-3.654681816E-3	1.251957406E-1	6.847226686E-3
1.77	-2.600002240E-3	8.450676508E-2	6.074934873E-3
1.78	3.800700464E-4	5.270320778E-2	5.689856980E-3
1.79	3.105417655E-3	3.459934267E-2	4.891576336E-3
1.8	1.872895606E-3	1.100222887E-2	4.431560052E-3
1.81	-6.777606683E-4	-1.487149729E-2	3.495765970E-3
1.82	-4.307359202E-3	-3.257759155E-2	2.195334653E-3
1.83	-3.776277969E-3	-3.857104269E-2	1.749195895E-3
1.84	-4.026121240E-4	-4.000118675E-2	6.425689651E-4
1.85	2.465969611E-3	-4.054663204E-2	1.227662770E-3
1.86	4.586010639E-3	-3.784142033E-2	3.869527141E-4
1.87	5.514280440E-3	-3.457724833E-2	8.957612889E-4
1.8800000000000001	3.534970094E-3	-3.615574066E-2	3.041771050E-3
1.8900000000000001	1.645144863E-3	-4.337452478E-2	2.247488040E-3
1.9000000000000001	1.338228365E-3	-4.319982523E-2	2.451980529E-3
1.9100000000000001	3.083866574E-3	-4.313645543E-2	2.080837687E-3
1.92	2.644074544E-3	-4.530448436E-2	2.546644093E-3
1.93	8.387935395E-4	-5.119680678E-2	4.050790370E-3
1.94	-1.213260511E-3	-7.209050818E-2	5.628045243E-3
1.95	-4.167502514E-3	-1.032513674E-1	5.961475077E-3
1.96	-4.458374636E-3	-1.108586540E-1	6.953710174E-3
1.97	-1.818324415E-3	-9.550123753E-2	8.136219266E-3
1.98	8.383928417E-4	-8.826444578E-2	8.585208183E-3
1.99	2.692283144E-3	-7.805689410E-2	8.486641166E-3
2.0	2.719523934E-3	-5.439786043E-2	8.623776279E-3
2.0100000000000002	7.978334230E-4	-4.835736746E-2	8.929340557E-3
2.02	-1.264358623E-5	-4.686305124E-2	9.637805816E-3
2.0300000000000002	3.722957073E-4	-3.573141608E-2	1.014067241E-2
2.04	1.536591325E-3	-4.359479340E-2	1.040252952E-2
2.05	2.886381418E-3	-5.485937275E-2	9.664047815E-3
2.06	1.935693004E-3	-5.987170742E-2	8.976738353E-3
2.07	1.344066967E-4	-8.847192148E-2	8.195509396E-3
2.08	-1.428044147E-3	-1.280901325E-1	7.389197342E-3
2.09	-5.960058750E-4	-1.432380702E-1	7.411045315E-3
2.1	2.481773201E-3	-1.535445380E-1	6.935742346E-3
2.11	5.680592128E-3	-1.655767750E-1	5.890252247E-3
2.12	6.629989719E-3	-1.523548421E-1	5.136778118E-3
2.13	3.359947458E-3	-1.197127054E-1	5.003044469E-3
2.14	1.099412129E-3	-8.241099942E-2	5.616656875E-3
2.15	-3.560276851E-5	-3.966442913E-2	5.369663374E-3
2.16	-1.127030435E-3	-3.939495703E-4	4.866631685E-3
2.17	-6.258985987E-4	2.698400025E-2	3.953377312E-3
2.18	8.912728824E-4	5.115901564E-2	1.825223622E-3
2.19	8.638226705E-4	6.825499731E-2	1.052720188E-3
2.2	-2.454565019E-3	7.984332744E-2	-3.753522033E-4
2.21	-3.378513423E-3	8.747564292E-2	-8.356542385E-4
2.22	-2.649001129E-3	8.706979180E-2	-8.308621553E-4
2.23	-2.224956153E-3	8.202286219E-2	-1.701496349E-3
2.24	5.038398540E-4	8.187270207E-2	-1.441772348E-3
2.25	5.230230437E-4	7.634763900E-2	-1.741018073E-3
2.2600000000000002	-1.200816974E-3	6.399891092E-2	-1.278945291E-3
2.27	-2.436092110E-3	6.287654575E-2	-2.879561225E-4
2.2800000000000002	-3.992540350E-3	5.753668620E-2	1.549786447E-3
2.29	-3.368500309E-3	5.264623141E-2	1.805030140E-3
2.3000000000000003	-1.084936624E-3	6.374522824E-2	7.490242733E-4
2.31	7.961894993E-4	8.171029750E-2	9.676079066E-4
2.32	4.950158145E-4	8.367931241E-2	3.054043973E-3
2.33	-7.014542177E-4	9.519457023E-2	4.257536626E-3
2.34	-1.567535728E-3	9.683584930E-2	6.332474575E-3
2.35	-1.608184230E-3	9.507557014E-2	8.274020191E-3
2.36	-7.827436618E-4	9.275314889E-2	8.641198297E-3
2.37	1.486329839E-4	8.627561325E-2	1.075971043E-2
2.38	9.455635183E-4	7.826194864E-2	9.974711402E-3
2.39	-1.640082491E-3	6.749536074E-2	1.172691501E-2
2.4	-2.189177438E-3	5.350039387E-2	1.296268982E-2
2.41	-3.173967389E-3	4.145269286E-2	1.285278764E-2
2.42	-2.374080213E-3	3.281372164E-2	1.316903340E-2
2.43	-1.164718207E-3	2.945838404E-2	1.132386452E-2
2.44	6.527538217E-4	3.062026254E-2	1.483141839E-2
2.45	2.208319885E-4	3.338871843E-2	1.495671346E-2
2.46	-1.567549828E-3	3.957795807E-2	1.316007243E-2
2.47	-2.732001226E-3	4.810358336E-2	1.281885408E-2
2.48	-2.081414858E-3	5.696985105E-2	1.034679202E-2
2.49	-1.095731836E-3	6.500387807E-2	9.047558782E-3
2.5	-1.171689601E-4	6.784163957E-2	8.907409450E-3
2.5100000000000002	-8.141715023E-4	6.217416583E-2	8.908854206E-3
2.52	-1.026861039E-4	4.584954453E-2	8.908854206E-3
2.5300000000000002	-8.285446827E-4	1.687375156E-2	8.908854206E-3
2.54	-1.832278372E-3	-1.717706963E-2	5.447522835E-3
2.5500000000000003	1.552707998E-3	-5.430343578E-2	5.864860205E-3
2.56	2.855173057E-3	-9.261431748E-2	5.950850161E-3
2.57	5.612248186E-3	-1.309901026E-1	4.151801118E-3
2.58	4.977121605E-3	-1.657201921E-1	5.734805811E-3
2.59	3.979797897E-3	-1.954797617E-1	4.958007546E-3
2.6	2.982473617E-3	-2.137413191E-1	6.645468449E-3
2.61	2.912972577E-3	-2.227563367E-1	5.804171503E-3
2.62	4.755219054E-3	-2.191226464E-1	5.682169785E-3
2.63	5.786556776E-3	-2.081773553E-1	5.631246854E-3
2.64	5.823377017E-3	-1.959330384E-1	6.511637151E-3
2.65	4.856027930E-3	-1.855766710E-1	6.500507023E-3
2.66	3.858373337E-3	-1.780780960E-1	9.295217954E-3
2.67	4.785261401E-3	-1.764856273E-1	8.357661106E-3
2.68	3.823725175E-3	-1.779234377E-1	8.279505823E-3
2.69	5.756525693E-3	-1.850858051E-1	1.015263867E-2
2.7	6.712849866E-3	-2.001430440E-1	1.104848597E-2
2.71	6.637814879E-3	-2.182473789E-1	1.098068637E-2
2.72	2.789805650E-3	-2.364725194E-1	1.287623164E-2
2.73	4.677211512E-3	-2.546898570E-1	1.377753998E-2
2.74	3.755647018E-3	-2.697694630E-1	1.376018115E-2
2.75	4.692561819E-3	-2.770829147E-1	1.461653225E-2
2.7600000000000002	4.729665399E-3	-2.803584958E-1	1.357827010E-2
2.77	5.642412056E-3	-2.788327751E-1	1.258549208E-2
2.7800000000000002	5.507372204E-3	-2.762497579E-1	1.258721380E-2
2.79	3.652264285E-3	-2.717341705E-1	1.337518798E-2
2.8000000000000003	3.794740038E-3	-2.662507987E-1	1.232671195E-2
2.81	5.749948723E-3	-2.606471952E-1	1.143763251E-2
2.82	7.622292204E-3	-2.544229388E-1	1.236352201E-2
2.83	8.588525508E-3	-2.511751423E-1	1.298467186E-2
2.84	9.123350431E-3	-2.505260792E-1	1.104439498E-2
2.85	6.367593981E-3	-2.500602720E-1	9.975399216E-3
2.86	5.241102688E-3	-2.503144412E-1	8.897483195E-3
2.87	3.639241930E-3	-2.435278078E-1	7.816963841E-3
2.88	4.613666680E-3	-2.357838080E-1	6.716148449E-3
2.89	5.144435189E-3	-2.225610557E-1	5.882098854E-3
2.9	3.290446131E-3	-2.071905560E-1	6.146699506E-3
2.91	2.284647439E-3	-1.850078496E-1	3.724385549E-3
2.92	1.451299414E-3	-1.629815942E-1	4.316512119E-3
2.93	1.441225450E-3	-1.329133283E-1	3.282386543E-3
2.94	1.438437080E-3	-8.885061364E-2	1.519903208E-3
2.95	1.214499522E-3	6.868703161E-3	-2.704253962E-3
2.96	3.197779146E-6	4.370199212E-2	-2.655244318E-3
2.97	-5.743120627E-4	5.388635025E-2	-1.159009589E-3
2.98	-9.046630149E-4	6.230168657E-2	1.617335548E-4
2.99	-2.460118656E-3	8.035526276E-2	-2.694851005E-4
3.0	-1.828228222E-3	6.801917115E-2	3.843163630E-4
3.0100000000000002	-1.206540868E-3	5.564725741E-2	2.092467320E-3
3.02	-5.561599834E-4	4.007339048E-2	2.403697803E-3
3.0300000000000002	-1.037224085E-3	2.502670614E-2	3.578736311E-3
3.04	-6.485620485E-4	1.127607192E-2	3.871421605E-3
3.0500000000000003	-1.601628294E-4	7.832714612E-4	5.390111908E-3
3.06	-4.856500357E-4	-2.072744597E-3	7.633568560E-3
3.0700000000000003	1.462561535E-4	-1.263741106E-3	7.158060871E-3
3.08	8.294906047E-5	3.428658764E-3	8.390272608E-3
3.09	3.206634829E-4	1.380717421E-2	8.656545016E-3
3.1	7.180316910E-4	3.183833989E-2	9.053913243E-3
3.11	-5.714094041E-4	5.208381562E-2	8.368854192E-3
3.12	-2.545909604E-3	7.574759879E-2	8.372011750E-3
3.13	-3.567104398E-3	9.909468718E-2	8.695545473E-3
3.14	-2.573085806E-3	1.191763804E-1	9.686101077E-3
3.15	-1.585783601E-3	1.316269089E-1	1.001761040E-2
3.16	-1.275623187E-3	1.367732025E-1	9.033713314E-3
3.17	-2.612248350E-3	1.342983822E-1	8.744700185E-3
3.18	-3.526725054E-3	1.241457201E-1	7.970072645E-3
3.19	-2.887027256E-3	1.079151803E-1	5.832877543E-3
3.2	-2.523181848E-3	9.069123887E-2	6.822699646E-3
3.21	-1.917027227E-3	7.285646844E-2	7.061657671E-3
3.22	-1.917027227E-3	5.654688918E-2	6.086697497E-3
3.23	-2.306528225E-3	4.344262329E-2	4.324325815E-3
3.24	-2.500276113E-3	3.273757611E-2	2.955605427E-3
3.25	-2.325150917E-3	2.463422784E-2	3.134853043E-3
3.2600000000000002	-2.084524538E-3	1.853422511E-2	2.147603093E-3
3.27	-1.185652192E-4	1.276524233E-2	1.578854551E-3
3.2800000000000002	9.929726724E-4	3.739348882E-3	2.004673115E-3
3.29	1.854864584E-3	-9.816753466E-3	2.121278452E-3
3.3000000000000003	2.057666465E-3	-2.777108196E-2	1.123954364E-3
3.31	1.863717074E-3	-5.066289811E-2	5.742865593E-4
3.3200000000000003	2.008518065E-3	-7.622137617E-2	1.093063745E-4
3.33	2.339441934E-3	-1.040561917E-1	-8.927335083E-4
3.34	5.291832766E-3	-1.320966532E-1	-4.917657217E-4
3.35	5.849619972E-3	-1.579282501E-1	2.744714368E-5
3.36	4.823093702E-3	-1.807242464E-1	4.522794071E-4
3.37	4.316647973E-3	-1.953879606E-1	1.388774226E-3
3.38	3.817885265E-3	-2.020681717E-1	2.325452835E-3
3.39	3.812972725E-3	-2.013052987E-1	3.233047548E-3
3.4	3.802502099E-3	-1.945876128E-1	3.177442327E-3
3.41	3.787663366E-3	-1.843832033E-1	3.637310093E-3
3.42	3.249943625E-3	-1.722870428E-1	5.097223258E-3
3.43	3.317020973E-3	-1.619040433E-1	5.411135087E-3
3.44	3.205137283E-3	-1.544149441E-1	5.990255287E-3
3.45	3.306984814E-3	-1.500705965E-1	7.915662030E-3
3.46	3.727290249E-3	-1.508915152E-1	9.292995538E-3
3.47	4.275580807E-3	-1.582424877E-1	9.105951667E-3
3.48	4.099941063E-3	-1.725202056E-1	8.068331672E-3
3.49	4.249785186E-3	-1.885981486E-1	8.778383527E-3
3.5	4.045144753E-3	-2.097652178E-1	8.959069913E-3
3.5100000000000002	4.230041554E-3	-2.308043704E-1	7.931523862E-3
3.52	4.006379288E-3	-2.473196212E-1	8.110938586E-3
3.5300000000000002	4.832132214E-3	-2.602612423E-1	7.852571560E-3
3.54	5.566697420E-3	-2.692006026E-1	6.220091654E-3
3.5500000000000003	4.927996872E-3	-2.722923907E-1	6.082081046E-3
3.56	5.186172918E-3	-2.690522658E-1	6.409580012E-3
3.5700000000000003	6.156806318E-3	-2.585098166E-1	5.099200579E-3
3.58	5.835802711E-3	-2.405846820E-1	4.365995795E-3
3.59	6.775588674E-3	-2.175437319E-1	3.664349317E-3
3.6	6.744180310E-3	-1.917138639E-1	3.278529967E-3
3.61	5.067520022E-3	-1.652556695E-1	2.558947241E-3
3.62	3.746053029E-3	-1.410091528E-1	1.528196367E-3
3.63	2.752434253E-3	-1.178663068E-1	1.194965734E-3
3.64	2.445954999E-3	-9.965236345E-2	-2.006356957E-4
3.65	1.740839498E-3	-8.429368859E-2	-1.500370950E-3
3.66	1.209305096E-3	-3.765169662E-2	-1.862812571E-3
3.67	8.450677245E-4	-9.366162393E-3	-3.397205354E-3
3.68	-4.639452631E-4	-1.822668035E-7	-4.000404261E-3
3.69	-7.592546128E-4	8.211651358E-3	-3.279670697E-3
3.7	-1.184709867E-3	1.623252828E-2	-3.737669234E-3
3.71	-2.296836718E-3	2.551758342E-2	-1.697079648E-3
3.72	-1.632671895E-3	3.561397943E-2	-2.336557181E-3
3.73	6.790532199E-4	4.724615446E-2	-2.555933782E-3
3.74	4.526405799E-4	5.366773380E-2	-5.588775517E-4
3.75	-1.009145945E-3	5.786978592E-2	6.804205898E-4
3.7600000000000002	-1.679166419E-3	5.713514082E-2	1.762466682E-3
3.77	-9.847858357E-4	6.528320767E-2	5.135802129E-3
3.7800000000000002	-1.584574855E-3	7.056816467E-2	5.139362700E-3
3.79	-1.995557622E-4	7.127982485E-2	3.363251485E-3
3.8000000000000003	9.671186781E-4	6.720872477E-2	5.411292479E-3
3.81	-4.798196381E-4	5.654233016E-2	6.750250409E-3
3.8200000000000003	-8.170273263E-4	4.464495920E-2	8.556146859E-3
3.83	-8.254548261E-4	3.358191123E-2	8.878854257E-3
3.84	-8.270273093E-4	2.852239084E-2	8.045707710E-3
3.85	4.924816348E-6	3.042633800E-2	8.747960035E-3
3.86	-7.048282932E-4	3.844473857E-2	9.736655085E-3
3.87	-1.691943760E-3	5.242805958E-2	1.072377078E-2
3.88	-1.100595175E-4	7.149334079E-2	8.270804932E-3
3.89	-3.346359970E-3	9.291737497E-2	9.666829800E-3
3.9	-3.787027403E-3	1.154385069E-1	8.134975084E-3
3.91	-2.893798889E-3	1.336620514E-1	9.706288394E-3
3.92	-2.797027222E-3	1.486795437E-1	9.016494664E-3
3.93	-3.695733311E-3	1.535127686E-1	8.928854172E-3
3.94	-2.861826550E-3	1.473963420E-1	8.032142446E-3
3.95	-2.787027239E-3	1.321659987E-1	6.151078507E-3
3.96	-9.461143566E-4	1.107371237E-1	6.929918317E-3
3.97	-2.682732533E-3	8.333646185E-2	6.998322123E-3
3.98	-1.861458236E-3	5.185151161E-2	5.147716276E-3
3.99	5.807891640E-5	1.928371801E-2	4.116493308E-3
4.0	1.329726664E-4	-9.449792035E-3	4.069164328E-3
4.01	1.080070105E-3	-3.704352362E-2	5.015951694E-3
4.0200000000000005	1.191855332E-4	-5.878191032E-2	4.064905000E-3
4.03	9.306081193E-5	-7.354134658E-2	5.010304003E-3
4.04	2.040516646E-3	-8.621369815E-2	3.041348009E-3
4.05	3.022849986E-3	-9.489432523E-2	2.048731536E-3
4.0600000000000005	3.002972611E-3	-1.005924641E-1	2.041849778E-3
4.07	3.023070156E-3	-1.052971686E-1	2.967919267E-3
4.08	3.934922918E-3	-1.109573320E-1	2.043537234E-3
4.09	3.007274515E-3	-1.166360654E-1	3.952798850E-3
4.1	3.932541170E-3	-1.241922835E-1	4.825286985E-3
4.11	4.020794215E-3	-1.328097137E-1	3.906498028E-3
4.12	5.738549587E-3	-1.440767339E-1	4.852871252E-3
4.13	3.882317624E-3	-1.543309352E-1	5.789751508E-3
4.14	3.801551292E-3	-1.655121450E-1	6.655939097E-3
4.15	2.892169842E-3	-1.758650432E-1	6.850854862E-3
4.16	2.882972628E-3	-1.867121604E-1	9.506223457E-3
4.17	2.974393947E-3	-1.920485227E-1	9.475044954E-3
4.18	3.742396405E-3	-1.959771810E-1	9.434749078E-3
4.19	2.862972662E-3	-1.957934866E-1	9.719031846E-3
4.2	2.975700485E-3	-1.976055753E-1	1.207400436E-2
4.21	3.821724318E-3	-1.942599564E-1	1.030386116E-2
4.22	3.811650493E-3	-1.921529788E-1	1.039446408E-2
4.23	3.937006809E-3	-1.922246585E-1	1.121326944E-2
4.24	5.049701038E-3	-1.904612229E-1	1.131854250E-2
4.25	6.558399981E-3	-1.933942006E-1	1.212267106E-2
4.26	6.027195546E-3	-1.996197190E-1	1.176491267E-2
4.2700000000000005	7.649584855E-3	-2.097812571E-1	1.008377304E-2
4.28	7.454438067E-3	-2.196495975E-1	9.878552102E-3
4.29	6.617446833E-3	-2.314225103E-1	9.031486426E-3
4.3	6.025480315E-3	-2.406046195E-1	8.993102601E-3
4.3100000000000005	4.021253677E-3	-2.478173611E-1	8.962880560E-3
4.32	5.578842187E-3	-2.486560626E-1	8.728207239E-3
4.33	5.141560731E-3	-2.416998093E-1	7.700661279E-3
4.34	3.590759561E-3	-2.274935868E-1	6.239342249E-3
4.3500000000000005	3.354261755E-3	-2.040531674E-1	4.131555331E-3
4.36	2.578249665E-3	-1.706294658E-1	5.066108624E-3
4.37	3.035681514E-3	-1.355838541E-1	5.283962109E-3
4.38	4.251910084E-3	-9.658922069E-2	3.281750746E-3
4.39	2.743098647E-3	-6.179767009E-2	1.796269900E-3
4.4	8.181969379E-4	-3.109043004E-2	2.049395774E-3
4.41	9.901221038E-4	-5.258626467E-3	2.768854206E-3
4.42	-1.575987388E-4	1.296852993E-2	2.768854206E-3
4.43	5.300916847E-4	2.303568988E-2	1.924726464E-3
4.44	-3.431598146E-4	2.653857262E-2	4.212029406E-4
4.45	-2.104020886E-3	2.327456409E-2	1.808854346E-3
4.46	-1.410131324E-3	1.667759859E-2	1.808854346E-3
4.47	-1.413849282E-3	9.693249614E-3	2.431747408E-3
4.48	-1.407027255E-3	5.400896464E-3	3.768854370E-3
4.49	-1.407027255E-3	5.376185024E-3	3.446233584E-3
4.5	-1.073830377E-3	1.192225756E-2	3.132051243E-3
4.51	-9.347573310E-5	2.141792312E-2	4.122829427E-3
4.5200000000000005	1.886707954E-4	3.508671717E-2	4.775953343E-3
4.53	-8.917278086E-5	5.059339913E-2	5.502680793E-3
4.54	1.680159966E-4	6.680448888E-2	7.128600778E-3
4.55	-4.407987599E-4	8.239707343E-2	7.770168559E-3
4.5600000000000005	-8.200924414E-4	9.375882578E-2	8.173457462E-3
4.57	-1.032771100E-3	1.017566231E-1	9.180952406E-3
4.58	-1.216045009E-3	1.057776642E-1	9.405337754E-3
4.59	-2.777645845E-3	1.058105539E-1	8.841060966E-3
4.6000000000000005	-2.534886300E-3	1.030689545E-1	8.461070788E-3
4.61	-1.800373179E-3	1.001519457E-1	7.907289862E-3
4.62	-2.783308706E-3	9.823970253E-2	8.352301928E-3
4.63	-2.904749596E-3	9.775993188E-2	8.937587039E-3
4.64	-2.773307650E-3	9.882206563E-2	8.527014144E-3
4.65	-2.864615743E-3	1.008697095E-1	8.450294494E-3
4.66	-2.772100456E-3	1.057134126E-1	8.562957810E-3
4.67	-3.292364861E-3	1.095686459E-1	7.601267255E-3
4.68	-3.282290887E-3	1.114918317E-1	7.103063257E-3
4.69	-3.738818527E-3	1.127108107E-1	6.195271731E-3
4.7	-3.274667407E-3	1.078799510E-1	4.256034882E-3
4.71	-2.262067339E-3	9.706755697E-2	3.288693885E-3
4.72	-2.251993375E-3	8.077915985E-2	3.323955813E-3
4.73	-1.741273232E-3	6.007151052E-2	2.853534791E-3
4.74	-7.490563044E-4	3.458546021E-2	2.388854479E-3
4.75	7.429002107E-4	5.401201096E-3	1.868375994E-3
4.76	2.180031164E-3	-2.607575153E-2	3.434152975E-4
4.7700000000000005	1.568267172E-3	-5.675365397E-2	-6.230428959E-5
4.78	1.731436268E-3	-8.537676340E-2	-1.800340353E-4
4.79	2.601865984E-3	-1.106176792E-1	4.139779699E-4
4.8	2.581716285E-3	-1.301397816E-1	6.735268919E-4
4.8100000000000005	3.120442981E-3	-1.423767526E-1	7.321077928E-4
4.82	4.081768308E-3	-1.493071931E-1	1.066863228E-3
4.83	3.897894745E-3	-1.509515711E-1	4.086719488E-4
4.84	2.896421413E-3	-1.462488637E-1	5.020828381E-4
4.8500000000000005	3.644911939E-3	-1.373778286E-1	1.414825610E-3
4.86	4.394749708E-3	-1.292346981E-1	1.147127656E-3
4.87	3.159658143E-3	-1.211091501E-1	1.906843004E-3
4.88	2.374307574E-3	-1.146073499E-1	3.211247142E-3
4.89	3.571659961E-3	-1.119992656E-1	4.131721735E-3
4.9	3.633268609E-3	-1.150218659E-1	5.042122535E-3
4.91	3.875171458E-3	-1.244196768E-1	6.580363704E-3
4.92	2.922372864E-3	-1.390072647E-1	5.280363874E-3
4.93	1.580348694E-3	-1.567588694E-1	5.481364855E-3
4.94	1.236305441E-3	-1.760405370E-1	6.095518312E-3
4.95	5.655446860E-4	-1.944790534E-1	7.359776591E-3
4.96	2.233150338E-3	-2.103230757E-1	7.276839476E-3
4.97	3.824379879E-3	-2.225667921E-1	7.596482137E-3
4.98	4.109043050E-3	-2.274460269E-1	7.860995303E-3
4.99	5.468576042E-3	-2.281599048E-1	6.448054705E-3
5.0	4.627673704E-3	-2.212908159E-1	6.520275356E-3
5.01	5.440008091E-3	-2.122083219E-1	6.760107399E-3
5.0200000000000005	5.953928082E-3	-1.990756338E-1	6.008218380E-3
5.03	5.202125868E-3	-1.871569271E-1	6.418355254E-3
5.04	4.910745291E-3	-1.769767336E-1	5.913126261E-3
5.05	4.147062629E-3	-1.677061348E-1	4.877975771E-3
5.0600000000000005	4.611042803E-3	-1.600602059E-1	3.840315051E-3
5.07	3.316449807E-3	-1.526713760E-1	2.047066255E-3
5.08	2.064606496E-3	-1.480988974E-1	7.596619975E-4
5.09	3.326843066E-3	-1.407082644E-1	-2.825447815E-4
5.1000000000000005	4.491300975E-3	-1.302230631E-1	-1.320164993E-3
5.11	8.159178045E-4	-1.147715687E-1	-2.333999331E-3
5.12	5.793391736E-4	-9.515787309E-2	-2.557153356E-3
5.13	-1.867846557E-5	-6.938142248E-2	-1.785650376E-3
5.14	5.837219328E-4	-4.005498090E-2	-2.400046721E-3
5.15	7.547478876E-4	-1.279218015E-2	-2.581145460E-3
5.16	-6.870239581E-5	1.873526757E-2	-2.581145460E-3
5.17	-1.066052904E-3	4.553392632E-2	-4.222448407E-3
5.18	-1.235475245E-3	6.699728131E-2	-2.057439926E-3
5.19	-2.072310650E-3	8.179773984E-2	-3.271712351E-3
5.2	-2.225623422E-3	8.961289021E-2	-2.710125513E-3
5.21	-5.274555215E-4	9.130621240E-2	-2.571145291E-3
5.22	-2.670273176E-4	8.531613924E-2	-8.482870433E-4
5.23	-2.004459949E-3	7.742019558E-2	2.631613243E-4
5.24	-1.365470614E-3	6.595065108E-2	-4.927021502E-4
5.25	-1.265994726E-3	5.752931817E-2	1.165435500E-3
5.26	-2.153223707E-3	5.194491470E-2	-3.944959820E-4
5.2700000000000005	-1.335332030E-3	5.004558742E-2	3.904394778E-3
5.28	-1.247027248E-3	5.391772735E-2	5.257947650E-3
5.29	-3.298008565E-4	6.183065093E-2	4.449422548E-3
5.3	-2.068772937E-3	7.555162967E-2	5.312743742E-3
5.3100000000000005	-2.178198627E-3	9.329452075E-2	4.484490379E-3
5.32	-3.087773198E-3	1.113790172E-1	6.316754809E-3
5.33	-3.127466383E-3	1.313743440E-1	7.365377096E-3
5.34	-4.052115377E-3	1.486129743E-1	6.503038809E-3
5.3500000000000005	-4.067606553E-3	1.628929717E-1	7.430181179E-3
5.36	-5.006325085E-3	1.713334341E-1	7.488207258E-3
5.37	-4.051052036E-3	1.747144417E-1	4.620078916E-3
5.38	-4.990529260E-3	1.741248041E-1	5.582018068E-3
5.39	-3.997782733E-3	1.656414388E-1	6.586564149E-3
5.4	-4.956781541E-3	1.540367310E-1	3.695142703E-3
5.41	-4.896328545E-3	1.375602705E-1	5.654050325E-3
5.42	-2.978859524E-3	1.200464797E-1	4.697022045E-3
5.43	-3.876647901E-3	1.005844618E-1	3.769765747E-3
5.44	-2.906271556E-3	8.115503763E-2	3.725554575E-3
5.45	-2.930546853E-3	6.195379464E-2	1.815334842E-3
5.46	-3.743147338E-3	4.591752227E-2	8.471778985E-4
5.47	-1.700849123E-3	3.197962650E-2	-8.054430861E-5
5.48	9.861208294E-4	1.907153694E-2	-1.373220170E-4
5.49	6.147416517E-5	6.481459837E-3	-1.125321586E-3
5.5	1.228262439E-4	-3.634997237E-3	-1.961291690E-3
5.51	1.100016092E-3	-1.745323981E-2	-1.072042602E-3
5.5200000000000005	1.981027133E-3	-3.269769564E-2	-1.177449540E-3
5.53	2.064507349E-3	-4.591718045E-2	-2.175820658E-3
5.54	3.039441909E-3	-6.521666189E-2	-2.854844623E-3
5.55	3.763501373E-3	-8.442787654E-2	-1.145924506E-3
5.5600000000000005	2.879166559E-3	-1.038000935E-1	-1.310552193E-3
5.57	2.850287314E-3	-1.195739473E-1	-2.207859109E-3
5.58	2.964742062E-3	-1.342119460E-1	-1.845919084E-3
5.59	3.612259588E-3	-1.423101563E-1	5.984090539E-4
5.6000000000000005	2.748274075E-3	-1.446148247E-1	6.829438110E-4
5.61	2.718052026E-3	-1.419675894E-1	1.611390200E-3
5.62	2.687830136E-3	-1.339499453E-1	2.378569530E-3
5.63	2.485947612E-3	-1.236776792E-1	2.849200490E-3
5.64	1.849901125E-3	-1.141268564E-1	4.864510858E-3
5.65	2.615222007E-3	-1.041082517E-1	3.410994868E-3
5.66	2.576937646E-3	-1.002290789E-1	4.557102307E-3
5.67	2.749021681E-3	-9.955644416E-2	6.092597392E-3
5.68	3.486493746E-3	-1.065033466E-1	6.274017179E-3
5.69	3.022955480E-3	-1.221149590E-1	6.576603425E-3
5.7	1.714499405E-3	-1.414277190E-1	5.260381088E-3
5.71	2.912684436E-3	-1.638228532E-1	5.758279709E-3
5.72	4.618854877E-3	-1.873273874E-1	5.465532981E-3
5.73	5.583425786E-3	-2.054619692E-1	6.430229986E-3
5.74	6.032465482E-3	-2.171253376E-1	4.698347407E-3
5.75	5.022388494E-3	-2.230189844E-1	3.953496144E-3
5.76	4.010422546E-3	-2.207016299E-1	4.205898156E-3
5.7700000000000005	3.290145537E-3	-2.102394637E-1	4.349106176E-3
5.78	3.277169808E-3	-1.925719493E-1	2.641610970E-3
5.79	3.834469507E-3	-1.677604160E-1	1.932901230E-3
5.8	4.871818751E-3	-1.409964328E-1	1.314850086E-3
5.8100000000000005	4.147350119E-3	-1.112401948E-1	2.419318743E-4
5.82	3.479671820E-3	-8.496811238E-2	5.922040014E-4
5.83	2.129700135E-3	-6.135439206E-2	-7.258220146E-4
5.84	2.116279726E-3	-4.225062744E-2	-1.395241282E-3
5.8500000000000005	2.099551686E-3	-2.656646622E-2	-1.096910692E-3
5.86	1.068648835E-3	-1.393677449E-2	-3.031145627E-3
5.87	-4.943104915E-4	-3.766240085E-3	-3.031145627E-3
5.88	-2.268462602E-4	3.523693403E-3	-3.388252547E-3
5.89	-8.370272923E-4	1.175418172E-2	-3.282316963E-3
5.9	-1.204995138E-3	2.165471598E-2	-2.051145429E-3
5.91	-1.803159770E-3	3.332353572E-2	-2.430156966E-3
5.92	-1.797027245E-3	4.453899909E-2	-3.417407295E-3
5.93	-1.407530999E-3	5.626107363E-2	-4.007130332E-3
5.94	-8.270273093E-4	7.001654372E-2	-2.794770768E-3
5.95	-1.235039209E-3	8.295935014E-2	-1.459157655E-3
5.96	-1.387527842E-3	9.239934930E-2	-2.026908396E-3
5.97	-1.235293937E-3	9.974055735E-2	-7.447855336E-4
5.98	-2.208103721E-3	1.057077644E-1	9.476269314E-4
5.99	-2.305486113E-3	1.090972627E-1	1.841936876E-3
6.0	-2.192442818E-3	1.107250141E-1	2.943389962E-3
6.01	-2.703198113E-3	1.098315883E-1	2.958073645E-3
6.0200000000000005	-2.677660111E-3	1.083261720E-1	2.978221350E-3
6.03	-3.114315166E-3	1.064495816E-1	3.464692443E-3
6.04	-3.123791015E-3	1.049553131E-1	3.524947644E-3
6.05	-3.078036234E-3	1.064814460E-1	4.000310367E-3
6.0600000000000005	-3.068994922E-3	1.096492032E-1	5.989978110E-3
6.07	-2.556918648E-3	1.157336474E-1	5.012729760E-3
6.08	-3.542071385E-3	1.252290567E-1	4.104414760E-3
6.09	-3.961439468E-3	1.373346375E-1	5.589238291E-3
6.1000000000000005	-3.471749461E-3	1.503169190E-1	5.044956975E-3
6.11	-2.412722249E-3	1.639193080E-1	4.139557903E-3
6.12	-4.676535952E-3	1.757508096E-1	4.691432557E-3
6.13	-5.729097185E-3	1.832343364E-1	4.081900088E-3
6.140000000000001	-4.385878074E-3	1.855189373E-1	2.673690602E-3
6.15	-5.472991223E-3	1.802794838E-1	2.819433554E-3
6.16	-5.178094409E-3	1.676264976E-1	2.709419500E-3
6.17	-3.184966825E-3	1.473163355E-1	6.118514665E-4
6.18	-1.775774361E-3	1.194855800E-1	-5.876607138E-4
6.19	-2.520400361E-3	8.676779114E-2	-1.724518912E-3
6.2	-2.127077577E-3	5.344284802E-2	-1.921170835E-3
6.21	-7.436462464E-4	2.077003403E-2	-1.531145568E-3
6.22	-3.570273161E-4	-9.890741260E-3	-2.135682110E-3
6.23	-3.695127487E-4	-3.253866498E-2	-3.129174776E-3
6.24	8.547292607E-4	-5.026265677E-2	-1.656669126E-3
6.25	9.466858787E-4	-6.065677107E-2	-1.846500758E-3
6.26	1.847117124E-3	-6.516396732E-2	-3.201147179E-3
6.2700000000000005	2.519893341E-3	-6.597713428E-2	-1.641560939E-3
6.28	2.493130015E-3	-6.283281095E-2	-1.292565357E-3
6.29	3.131725911E-3	-6.036641742E-2	-2.948716843E-3
6.3	2.114065063E-3	-6.086326627E-2	-2.289286654E-3
6.3100000000000005	2.136078226E-3	-6.364696859E-2	-2.337923159E-3
6.32	2.429152412E-3	-7.035126582E-2	-1.310582185E-3
6.33	2.402020265E-3	-8.120853228E-2	-7.320979830E-4
6.34	1.687053215E-3	-9.311818775E-2	-7.552637069E-4
6.3500000000000005	1.378705394E-3	-1.065880048E-1	1.307609290E-3
6.36	6.594184702E-4	-1.206353117E-1	1.396469712E-3
6.37	1.795602840E-3	-1.307088699E-1	3.227799618E-3
6.38	1.587414674E-3	-1.377785694E-1	3.275940639E-3
6.390000000000001	5.948757365E-4	-1.422607348E-1	4.450188943E-3
6.4	2.526503162E-3	-1.445026212E-1	4.198500094E-3
6.41	1.752386995E-3	-1.439367042E-1	3.183404169E-3
6.42	1.265319598E-3	-1.412394057E-1	4.431204360E-3
6.43	1.247518518E-3	-1.396209000E-1	4.873400240E-3
6.44	3.513074741E-3	-1.392268999E-1	4.853252168E-3
6.45	3.365470727E-3	-1.421583967E-1	4.840979205E-3
6.46	3.892229516E-3	-1.459880824E-1	4.830905242E-3
6.47	4.845275666E-3	-1.537345554E-1	4.026429880E-3
6.48	4.223119081E-3	-1.625600281E-1	4.614412286E-3
6.49	4.809361539E-3	-1.705468653E-1	3.188868691E-3
6.5	3.350166046E-3	-1.776083635E-1	3.637011100E-3
6.51	4.600504326E-3	-1.819879377E-1	2.169720267E-3
6.5200000000000005	3.260869597E-3	-1.775172921E-1	1.851458518E-4
6.53	2.926035676E-3	-1.681218854E-1	1.528668486E-3
6.54	2.905885059E-3	-1.538778446E-1	1.828854312E-3
6.55	2.041175045E-3	-1.311297907E-1	9.756747238E-4
6.5600000000000005	1.868204851E-3	-1.052217392E-1	-1.295755378E-5
6.57	1.854206762E-3	-7.539021405E-2	-1.000207255E-3
6.58	1.844132799E-3	-4.529120162E-2	-2.548338817E-4
6.59	9.604966501E-4	-1.289500076E-2	-3.635393623E-3
6.6000000000000005	-1.885161731E-5	1.173402294E-2	-4.061145182E-3
6.61	-1.170273214E-4	3.790692630E-2	-4.061145182E-3
6.62	-1.003343453E-3	5.615970004E-2	-2.270238700E-3
6.63	-1.980532745E-3	7.168864957E-2	-3.906578772E-3
6.640000000000001	-2.038456467E-3	8.055091683E-2	-3.151178748E-3
6.65	-2.018308527E-3	8.331184931E-2	-3.081145729E-3
6.66	-2.922627788E-3	8.287561542E-2	-3.081145729E-3
6.67	-2.035802723E-3	7.857169647E-2	-3.081145729E-3
6.68	-2.916559704E-3	7.312784810E-2	-2.142030349E-3
6.69	-1.991341844E-3	6.761818274E-2	-1.987452673E-4
6.7	-1.947296527E-3	6.495884626E-2	8.224763446E-4
6.71	-1.937222380E-3	6.338053730E-2	8.488544871E-4
6.72	-2.054071805E-5	7.140169796E-2	8.488544871E-4
6.73	-1.918215716E-3	8.139510130E-2	8.588086293E-4
6.74	-9.296229009E-4	9.112749380E-2	1.846748241E-3
6.75	-1.896825750E-3	1.088070543E-1	4.779081013E-3
6.76	-1.893948920E-3	1.244825580E-1	3.819030551E-3
6.7700000000000005	-2.836778596E-3	1.411017517E-1	3.853479582E-3
6.78	-2.857831516E-3	1.547690674E-1	4.850955630E-3
6.79	-3.737203578E-3	1.636178271E-1	5.809650732E-3
6.8	-2.914464279E-3	1.694821652E-1	5.783041977E-3
6.8100000000000005	-5.579115948E-3	1.722391370E-1	4.913083870E-3
6.82	-3.654852023E-3	1.701870623E-1	5.727612445E-3
6.83	-2.715635706E-3	1.652013870E-1	3.900245801E-3
6.84	-2.770919800E-3	1.592855849E-1	4.071257797E-3
6.8500000000000005	-3.819016676E-3	1.535429706E-1	5.817015791E-3
6.86	-5.484341861E-3	1.487616722E-1	4.840757357E-3
6.87	-4.564052210E-3	1.450071897E-1	3.776472854E-3
6.88	-4.637197045E-3	1.428290708E-1	1.926553128E-3
6.890000000000001	-5.138507177E-3	1.397883274E-1	8.488733903E-4
6.9	-2.386725119E-3	1.371343869E-1	-6.193258275E-4
6.91	-1.639496909E-3	1.315318375E-1	1.259058962E-3
6.92	-2.464300958E-3	1.215853681E-1	1.608594664E-3
6.93	-2.165308220E-3	1.049419730E-1	-1.748270834E-3
6.94	-6.337563615E-4	8.434963548E-2	-1.877874295E-3
6.95	-1.149216809E-3	5.812046635E-2	-2.699558696E-3
6.96	4.813120244E-4	3.032663938E-2	-2.855548372E-3
6.97	4.729726709E-4	-1.499392491E-3	-3.511153299E-3
6.98	8.220313087E-4	-2.986357916E-2	-2.702953881E-3
6.99	2.401090092E-3	-5.674916009E-2	-2.899402893E-3
7.0	2.578874572E-3	-7.745450375E-2	-3.523286351E-3
7.01	2.743500036E-3	-9.412627364E-2	-2.358948071E-3
7.0200000000000005	1.005845293E-3	-1.004401042E-1	-8.274636946E-4
7.03	3.296432414E-3	-1.006391385E-1	-1.069152551E-3
7.04	3.047567221E-3	-9.710073991E-2	-2.076551031E-3
7.05	2.040169212E-3	-8.858623965E-2	-2.627654366E-3
7.0600000000000005	1.505968070E-3	-8.018259755E-2	-1.658150271E-3
7.07	1.997810495E-3	-7.079778856E-2	-6.809363316E-4
7.08	1.497921422E-3	-6.637559675E-2	2.938031271E-4
7.09	1.953045070E-3	-6.635299978E-2	1.263530741E-3
7.1000000000000005	1.479426230E-3	-6.991764762E-2	2.502559524E-3
7.11	2.161878579E-3	-7.857188072E-2	3.910533837E-3
7.12	1.851072746E-3	-9.111330311E-2	3.883159415E-3
7.13	8.537486517E-4	-1.077375909E-1	4.438537929E-3
7.140000000000001	4.435755775E-4	-1.267563614E-1	5.522259518E-3
7.15	1.417787666E-3	-1.437871846E-1	4.825783261E-3
7.16	2.384889887E-3	-1.589044114E-1	5.123916431E-3
7.17	2.721077543E-3	-1.717795412E-1	5.470178111E-3
7.18	2.042972565E-3	-1.807197700E-1	5.118319011E-3
7.19	2.032867121E-3	-1.847132078E-1	5.435374036E-3
7.2	2.680811324E-3	-1.850274239E-1	4.441492482E-3
7.21	3.945939601E-3	-1.810459069E-1	4.139949857E-3
7.22	3.925791674E-3	-1.740999384E-1	4.768854347E-3
7.23	4.616650170E-3	-1.637719935E-1	4.409685577E-3
7.24	5.451556167E-3	-1.508531935E-1	3.418656037E-3
7.25	4.420298237E-3	-1.378372383E-1	2.425241960E-3
7.26	3.390389217E-3	-1.243538738E-1	1.818854516E-3
7.2700000000000005	3.141430061E-3	-1.101239826E-1	1.046282472E-3
7.28	3.295347942E-3	-9.630339636E-2	-5.266628493E-4
7.29	2.286095544E-3	-8.302132495E-2	-7.083786598E-4
7.3	2.096316446E-3	-7.015314569E-2	-1.269611312E-4
7.3100000000000005	1.394967067E-3	-5.658909721E-2	-9.559887318E-4
7.32	-1.132037461E-3	-4.083377251E-2	-2.505817059E-3
7.33	-1.368776099E-3	-2.490869728E-2	-1.765379742E-3
7.34	-1.575580670E-3	-7.117323017E-3	-1.438661526E-3
7.3500000000000005	-2.289627694E-3	1.205881615E-2	-3.061145390E-3
7.36	-1.212397998E-3	3.254942697E-2	-3.514817736E-3
7.37	-7.414016530E-4	5.347820273E-2	-2.658378532E-3
7.38	-6.804225111E-4	7.369501911E-2	-2.042267906E-3
7.390000000000001	-1.182176014E-3	9.088856891E-2	-2.595722852E-3
7.4	-1.649923927E-3	1.028878194E-1	-2.091145362E-3
7.41	-2.127025669E-3	1.102858631E-1	-2.096146233E-3
7.42	-1.614625273E-3	1.135834893E-1	-1.603818208E-3
7.43	-1.121878526E-3	1.113100384E-1	-6.165682736E-4
7.44	-1.618488263E-3	1.036906247E-1	3.707622837E-4
7.45	-2.580364243E-3	9.528251903E-2	8.388543178E-4
7.46	-3.005541564E-3	8.734020162E-2	2.423422954E-3
7.47	-2.437028919E-3	8.096494568E-2	3.788854336E-3
7.48	-1.425004680E-3	7.762299540E-2	3.794374553E-3
7.49	-2.062474365E-3	7.998003444E-2	3.798854319E-3
7.5	-3.438645271E-3	8.853475631E-2	2.693250700E-3
7.51	-3.814052200E-3	1.030628965E-1	1.854598119E-3
7.5200000000000005	-4.343893158E-3	1.217983093E-1	3.004945896E-3
7.53	-5.296739058E-3	1.432268138E-1	3.257358914E-3
7.54	-3.927150122E-3	1.642467407E-1	4.624697060E-3
7.55	-3.908722470E-3	1.835348510E-1	4.635079783E-3
7.5600000000000005	-4.664799923E-3	1.982357142E-1	3.871081676E-3
7.57	-5.851239537E-3	2.059976044E-1	3.885041986E-3
7.58	-6.574504061E-3	2.061960100E-1	3.895115950E-3
7.59	-4.697734152E-3	2.003129883E-1	4.526176385E-3
7.6000000000000005	-4.860789137E-3	1.869000327E-1	3.645092326E-3
7.61	-4.266487492E-3	1.682885408E-1	2.955339507E-3
7.62	-3.553906906E-3	1.466536092E-1	2.971974696E-3
7.63	-3.527126375E-3	1.231490049E-1	1.041838580E-3
7.640000000000001	-3.496902844E-3	1.020964715E-1	-1.242521360E-3
7.65	-3.466682666E-3	8.399229879E-2	-1.874363863E-3
7.66	-3.443314957E-3	6.673024958E-2	-1.192390949E-3
7.67	-2.078846669E-3	5.167997955E-2	-2.918416498E-3
7.68	-2.842825361E-3	3.969998766E-2	-2.441339454E-3
7.69	-2.039414002E-3	2.801400618E-2	-2.544952008E-3
7.7	-7.219738760E-5	1.612427882E-2	-2.130154161E-3
7.71	-2.181088165E-4	3.613057220E-3	-2.559454518E-3
7.72	9.222706076E-4	-8.369908766E-3	-2.122845199E-3
7.73	7.127444551E-4	-2.071956995E-2	-1.138293438E-3
7.74	1.175624888E-3	-3.543530225E-2	-2.348800233E-3
7.75	3.612457761E-3	-5.083867064E-2	-3.596021675E-3
7.76	2.820735617E-3	-6.681620117E-2	-2.359305310E-3
7.7700000000000005	2.327625560E-3	-7.990078382E-2	-2.658499535E-3
7.78	2.299730126E-3	-8.957930972E-2	-1.380378826E-3
7.79	1.510822490E-3	-9.689031487E-2	-9.567885340E-4
7.8	1.292972628E-3	-1.005881482E-1	-9.769362479E-4
7.8100000000000005	5.039958186E-4	-1.026060511E-1	-9.970843943E-4
7.82	-4.691979080E-4	-1.011034353E-1	5.592825748E-4
7.83	-6.570273187E-4	-9.818142498E-2	-6.605296800E-4
7.84	9.324106950E-4	-9.508607327E-2	-2.446193728E-4
7.8500000000000005	1.266438753E-3	-9.259504681E-2	2.351073597E-3
7.86	1.246290748E-3	-9.271499336E-2	2.850513467E-3
7.87	1.226142805E-3	-9.436786534E-2	4.489764043E-3
7.88	3.825712811E-4	-1.003216175E-1	3.958452923E-3
7.890000000000001	2.725164009E-3	-1.104932465E-1	4.639584805E-3
7.9	2.270490345E-3	-1.219982722E-1	3.085720443E-3
7.91	1.270443096E-3	-1.370476302E-1	1.956324805E-3
7.92	2.847534193E-3	-1.528868776E-1	5.273122947E-3
7.930000000000001	4.793026069E-3	-1.670179755E-1	4.880537013E-3
7.94	3.243969027E-3	-1.800523021E-1	3.893286933E-3
7.95	2.132138333E-3	-1.903107555E-1	2.906036931E-3
7.96	2.905012926E-3	-1.941054763E-1	4.589269979E-3
7.97	2.983814766E-3	-1.900395187E-1	4.768854347E-3
7.98	2.964508958E-3	-1.797614220E-1	2.959410148E-3
7.99	3.865638943E-3	-1.634732134E-1	2.808854510E-3
8.0	2.985610685E-3	-1.400705825E-1	6.056704757E-5
8.01	1.968138709E-3	-1.113536606E-1	-1.974090183E-3
8.02	1.893917068E-3	-8.091033730E-2	-2.041722849E-4
8.03	2.814887035E-3	-5.362749956E-2	-1.993387566E-3
8.040000000000001	-1.835929867E-6	-2.672107833E-2	-2.071145768E-3
8.05	-1.033151956E-3	-3.811831164E-3	-3.982399950E-3
8.06	-2.019904543E-3	1.499602481E-2	-3.068267892E-3
8.07	-2.997255476E-3	2.493266323E-2	-4.991400609E-3
8.08	-1.042298949E-3	3.267995724E-2	-2.079013065E-3
8.09	-1.037027325E-3	3.838865173E-2	-3.046516760E-3
8.1	-1.036781771E-3	4.014363172E-2	-2.083177872E-3
8.11	-1.016830509E-3	4.290157858E-2	-3.051341981E-3
8.120000000000001	-1.007027283E-3	4.756519460E-2	-3.087656877E-3
8.13	-1.006690169E-3	5.230331701E-2	-4.041145588E-3
8.14	-1.038059881E-3	6.006464365E-2	-4.000112999E-3
8.15	-2.024324598E-3	7.243154925E-2	-3.109920743E-3
8.16	-2.825944057E-3	8.481939453E-2	-3.940062611E-3
8.17	-1.038037869E-3	9.856636602E-2	-1.902333796E-3
8.18	-1.926311015E-3	1.081499638E-1	7.786672056E-4
8.19	-1.914656698E-3	1.166265192E-1	-1.319359020E-4
8.2	-1.801475616E-3	1.233836817E-1	-5.645835890E-5
8.21	-1.078088180E-3	1.241885238E-1	1.023667801E-3
8.22	-2.922181395E-3	1.273095585E-1	2.610447806E-3
8.23	-3.763764067E-3	1.249246644E-1	9.565342783E-4
8.24	-3.394338824E-3	1.229104740E-1	2.180381285E-3
8.25	-1.026740727E-3	1.228907050E-1	4.537905277E-3
8.26	-2.724408087E-3	1.236501898E-1	3.086849088E-3
8.27	-2.838468969E-3	1.307010683E-1	4.664645299E-3
8.28	-3.795518888E-3	1.392891822E-1	3.830312074E-3
8.290000000000001	-4.603960865E-3	1.516798863E-1	3.690140289E-3
8.3	-4.738095891E-3	1.619966954E-1	2.555467138E-3
8.31	-5.521983809E-3	1.745939959E-1	7.557882273E-4
8.32	-5.493517147E-3	1.851810000E-1	2.963592503E-4
8.33	-5.294121592E-3	1.896308057E-1	1.751435976E-3
8.34	-4.659718738E-3	1.904982906E-1	9.626605551E-4
8.35	-5.237316702E-3	1.851970470E-1	7.870534393E-4
8.36	-4.219717147E-3	1.730439414E-1	-1.881926017E-4
8.370000000000001	-3.410647489E-3	1.543653597E-1	-1.153168157E-3
8.38	-3.596078183E-3	1.291381072E-1	-2.112397206E-3
8.39	-3.886673274E-3	1.024119516E-1	-3.527578724E-3
8.4	-2.354678362E-3	7.258158438E-2	-5.560956446E-3
8.41	-1.871913163E-3	4.396191579E-2	-5.048702307E-3
8.42	-3.870273117E-4	1.677048466E-2	-5.546338219E-3
8.43	-3.870273117E-4	-7.044881620E-3	-4.811145211E-3
8.44	-6.463346923E-4	-2.482963889E-2	-5.073098680E-3
8.45	-8.366322628E-4	-3.927300714E-2	-5.534588006E-3
8.46	3.091650592E-4	-4.965821962E-2	-5.097747053E-3
8.47	-1.159253062E-4	-5.546985387E-2	-6.095116256E-3
8.48	5.800291705E-4	-5.646294567E-2	-6.227165061E-3
8.49	8.656674052E-4	-5.573405194E-2	-4.854162666E-3
8.5	1.842843590E-3	-5.429507098E-2	-3.952258265E-3
8.51	2.199594802E-3	-5.314023530E-2	-2.544735769E-3
8.52	5.769147767E-4	-5.332226302E-2	-3.576872605E-3
8.53	-7.506083078E-4	-5.578478810E-2	-2.924460281E-3
8.540000000000001	2.242445532E-4	-6.185090557E-2	-3.266651576E-3
8.55	2.513183321E-4	-7.176527378E-2	-3.245874222E-3
8.56	8.303488162E-4	-8.309831099E-2	-1.631602124E-3
8.57	2.798749185E-4	-9.475260273E-2	4.007131428E-4
8.58	1.148170281E-3	-1.072657310E-1	3.252602062E-3
8.59	1.248431456E-3	-1.198101412E-1	2.746233580E-3
8.6	1.697785386E-3	-1.299058027E-1	1.270697692E-3
8.61	4.790642712E-4	-1.387469136E-1	2.247968030E-3
8.620000000000001	1.241570156E-3	-1.434392775E-1	2.834871984E-3
8.63	2.394859935E-3	-1.469390935E-1	2.427275726E-3
8.64	2.374710596E-3	-1.486889639E-1	2.243690682E-3
8.65	1.938244866E-3	-1.491970437E-1	1.990425047E-3
8.66	2.593873167E-3	-1.474781894E-1	8.488544871E-4
8.67	4.239913173E-3	-1.461708083E-1	2.555294464E-3
8.68	4.205264809E-3	-1.478948824E-1	4.768854347E-3
8.69	4.169467164E-3	-1.504531621E-1	3.445322209E-3
8.700000000000001	3.246965968E-3	-1.517789117E-1	2.277281891E-3
8.71	2.610119836E-3	-1.527537101E-1	2.353105048E-3
8.72	3.103521787E-3	-1.512152140E-1	1.370497640E-3
8.73	2.613041843E-3	-1.470594766E-1	-8.180992910E-5
8.74	1.605643881E-3	-1.384574568E-1	-6.186900520E-4
8.75	5.982458015E-4	-1.228598116E-1	-1.012510359E-4
8.76	9.297266454E-5	-1.024036152E-1	-1.567393071E-3
8.77	-8.904068076E-4	-7.731662983E-2	-2.027385340E-3
8.78	-1.330364865E-3	-4.816971186E-2	-2.581133135E-3
8.790000000000001	-1.365689507E-3	-1.733732378E-2	-3.487239351E-3
8.8	-1.827027194E-3	1.111759155E-2	-4.063475247E-3
8.81	-1.293147217E-3	3.766330687E-2	-4.452658102E-3
8.82	-1.372764672E-3	5.962601861E-2	-4.542349582E-3
8.83	-1.268499039E-3	7.424336590E-2	-4.991145278E-3
8.84	-1.922060242E-3	8.325389509E-2	-4.996760927E-3
8.85	-2.213783683E-3	8.625943065E-2	-5.001145447E-3
8.86	-1.781264640E-3	8.495948326E-2	-3.871669852E-3
8.870000000000001	-1.782864800E-3	8.070653903E-2	-3.619061193E-3
8.88	-2.360507495E-3	7.353155958E-2	-3.451752918E-3
8.89	-3.325711283E-3	6.810117803E-2	-3.057131470E-3
8.9	-3.694906930E-3	6.412856586E-2	-3.655038129E-3
8.91	-3.073519708E-3	6.512991257E-2	-2.237433612E-3
8.92	-1.476142701E-3	7.013402032E-2	-1.101145739E-3
8.93	-1.346540838E-3	7.970970389E-2	-1.107429491E-3
8.94	-2.317359349E-3	9.160618650E-2	1.349490653E-4
8.950000000000001	-3.265166631E-3	1.061832116E-1	1.479151840E-3
8.96	-3.564499163E-3	1.224300128E-1	1.828854312E-3
8.97	-2.882386156E-3	1.375631294E-1	2.473753687E-3
8.98	-3.814810888E-3	1.508626265E-1	3.461056470E-3
8.99	-5.089562919E-3	1.628224049E-1	2.469949898E-3
9.0	-3.383314111E-3	1.725839972E-1	3.835764345E-3
9.01	-3.764300897E-3	1.794579518E-1	4.778854330E-3
9.02	-4.346174189E-3	1.805775706E-1	3.423400384E-3
9.03	-5.004404785E-3	1.802253551E-1	2.835879361E-3
9.040000000000001	-4.569914398E-3	1.766888185E-1	2.845954519E-3
9.05	-5.668892361E-3	1.724667504E-1	4.262243192E-3
9.06	-4.781815511E-3	1.669706103E-1	1.984673704E-3
9.07	-5.642951954E-3	1.615586637E-1	9.161770335E-4
9.08	-4.677726231E-3	1.534374718E-1	2.087898591E-4
9.09	-3.409978610E-3	1.442175144E-1	-3.367506497E-5
9.1	-2.402461746E-3	1.341209127E-1	-7.479824430E-4
9.11	-4.343973457E-3	1.221949911E-1	-9.659054641E-4
9.120000000000001	-3.488226705E-3	1.099661245E-1	-9.380637799E-4
9.13	-3.764985687E-3	9.578484670E-2	-9.156096119E-4
9.14	-2.424318397E-3	7.820673651E-2	-1.671816037E-3
9.15	-1.213348715E-3	5.848608634E-2	-2.656908310E-3
9.16	-2.320045311E-4	3.775138604E-2	-3.636168538E-3
9.17	-4.509123127E-5	1.617857135E-2	-3.040882741E-3
9.18	-8.283874922E-4	-6.231255724E-3	-3.656922961E-3
9.19	2.179788175E-3	-2.708923170E-2	-3.841145183E-3
9.200000000000001	2.044230346E-3	-4.746011157E-2	-4.661600382E-3
9.21	1.045193712E-3	-6.441482377E-2	-4.839507095E-3
9.22	-7.619273143E-4	-7.645653293E-2	-4.858016146E-3
9.23	5.922988998E-4	-8.427520420E-2	-4.869654822E-3
9.24	1.715688329E-3	-8.727965927E-2	-5.721030183E-3
9.25	1.558280386E-4	-8.525295309E-2	-4.172659811E-3
9.26	1.587151608E-3	-8.171074429E-2	-3.919878652E-3
9.27	2.669624574E-3	-7.379890948E-2	-3.929952148E-3
9.28	2.765210956E-3	-6.699920854E-2	-2.199381243E-3
9.290000000000001	1.867490222E-3	-6.220402627E-2	-1.112527738E-3
9.3	8.780104411E-4	-6.113351934E-2	-1.352136903E-4
9.31	2.539837522E-3	-6.481992393E-2	8.418382957E-4
9.32	1.795295923E-3	-7.398085889E-2	4.516969909E-3
9.33	-9.120701800E-5	-8.711195263E-2	2.100202156E-3
9.34	2.458274071E-3	-1.048968580E-1	1.869527953E-3
9.35	1.703544115E-3	-1.258407093E-1	9.288261549E-4
9.36	2.543027658E-3	-1.436036780E-1	2.725810239E-3
9.370000000000001	2.564327877E-3	-1.621837677E-1	2.819306070E-3
9.38	1.600598630E-3	-1.770701789E-1	1.866104047E-3
9.39	3.444342120E-3	-1.861535596E-1	2.779236999E-3
9.4	1.577935793E-3	-1.912272246E-1	2.808854510E-3
9.41	4.398083556E-3	-1.874898282E-1	2.808854510E-3
9.42	4.403293763E-3	-1.776486639E-1	1.836721512E-3
9.43	5.352374574E-3	-1.648075534E-1	2.808237479E-3
9.44	3.356046697E-3	-1.499029540E-1	2.802067165E-3
9.450000000000001	2.362542864E-3	-1.329447177E-1	1.800922726E-3
9.46	2.311250612E-3	-1.157510930E-1	-9.964074185E-5
9.47	1.360636699E-3	-9.965153924E-2	8.691456477E-4
9.48	2.317299614E-3	-8.558500547E-2	8.788542498E-4
9.49	3.093858771E-3	-7.282931030E-2	7.501797631E-4
9.5	2.824594432E-4	-6.141294750E-2	-2.101441409E-3
9.51	2.164576335E-4	-5.079529277E-2	-3.030556919E-3
9.52	-6.227474933E-4	-3.573706803E-2	-3.086087972E-3
9.53	2.115166676E-4	-2.157633066E-2	-3.928952980E-3
9.540000000000001	-8.442915100E-4	-5.441726664E-3	-3.100588212E-3
9.55	-2.453641530E-3	1.294114468E-2	-4.175416055E-3
9.56	-7.609702772E-4	2.800334987E-2	-5.877202483E-3
9.57	-1.747203639E-3	4.641609811E-2	-4.991145278E-3
9.58	-2.398724183E-3	6.339097939E-2	-4.991145278E-3
9.59	-7.616927563E-4	7.663266681E-2	-4.992327416E-3
9.6	-1.737612809E-3	8.840917717E-2	-4.754950005E-3
9.61	-2.315001507E-3	9.604980237E-2	-3.042475800E-3
9.620000000000001	-7.432212187E-4	9.951675072E-2	-2.913547319E-3
9.63	-1.432179197E-3	9.870076013E-2	-2.072623724E-3
9.64	-1.050289288E-3	9.743613989E-2	-2.081145192E-3
9.65	-3.354269563E-3	9.340066321E-2	-2.082772797E-3
9.66	-2.515325771E-3	8.857414695E-2	-1.590887364E-3
9.67	-2.329473427E-3	8.820671163E-2	1.022857281E-3
9.68	-1.682731619E-3	8.996769172E-2	2.010107260E-3
9.69	-2.637836278E-3	9.194345548E-2	2.997357537E-3
9.700000000000001	-3.197279066E-3	9.939187996E-2	3.397348035E-3
9.71	-2.591775432E-3	1.106649319E-1	2.234924846E-3
9.72	-3.540993870E-3	1.251204194E-1	3.791001349E-3
9.73	-4.280364276E-3	1.397049921E-1	3.798854319E-3
9.74	-4.472755131E-3	1.576629052E-1	4.026057202E-3
9.75	-4.960131190E-3	1.753025314E-1	4.556696313E-3
9.76	-4.194583899E-3	1.879850397E-1	3.811297622E-3
9.77	-4.675615155E-3	1.969720880E-1	4.314997816E-3
9.78	-6.116657269E-3	2.039678740E-1	5.029258920E-3
9.790000000000001	-5.820381512E-3	2.037658901E-1	3.645458958E-3
9.8	-5.347368611E-3	1.978433510E-1	5.540291406E-3
9.81	-5.755585355E-3	1.844583606E-1	4.555855720E-3
9.82	-5.308579518E-3	1.656005531E-1	3.298416827E-3
9.83	-5.387200392E-3	1.432692587E-1	2.212285759E-3
9.84	-3.680195729E-3	1.189555159E-1	2.614174668E-3
9.85	-2.967691559E-3	9.362964650E-2	1.636998520E-3
9.86	-2.940655499E-3	7.056957159E-2	1.284258012E-3
9.870000000000001	-2.284831470E-3	5.138802931E-2	1.319918401E-3
9.88	-9.570272747E-4	3.505637083E-2	-1.308018039E-3
9.89	-9.536189057E-4	2.084139533E-2	-3.249695761E-3
9.9	-6.091913421E-4	8.366002299E-3	-1.268507739E-3
9.91	3.679395671E-4	-1.298649641E-3	-6.917483725E-4
9.92	2.921211750E-4	-6.754411216E-3	-1.605272540E-3
9.93	1.451011458E-4	-1.188818552E-2	-1.344325372E-3
9.94	1.975412088E-3	-1.870544988E-2	-1.594456685E-3
9.950000000000001	1.207726390E-3	-2.728169890E-2	-2.358991998E-4
9.96	3.839785859E-4	-3.730475647E-2	1.950587983E-4
9.97	1.361247389E-3	-4.967498052E-2	-1.397425853E-3
9.98	1.143917077E-3	-6.149808727E-2	-7.966388174E-4
9.99	7.923775787E-4	-7.294650886E-2	5.279257021E-4
10.0	1.514653967E-3	-8.265717839E-2	1.186908331E-3
10.01	9.386730177E-4	-8.882152466E-2	2.870254912E-3
10.02	5.000035348E-4	-9.322156773E-2	3.711672267E-3
10.03	-5.257903299E-5	-9.472609798E-2	4.368473382E-3
10.040000000000001	-4.702732465E-5	-9.358295889E-2	3.371149377E-3
10.05	-4.928638878E-4	-9.224759352E-2	3.279287240E-3
10.06	-5.640145695E-4	-9.167716244E-2	4.719549959E-3
10.07	8.734953256E-4	-9.253978904E-2	5.758854249E-3
10.08	1.415815412E-3	-9.643156736E-2	5.758854249E-3
10.09	1.852210844E-3	-1.047381254E-1	6.233473339E-3
10.1	3.309864913E-3	-1.161238726E-1	6.242094232E-3
10.11	4.261935292E-3	-1.299943818E-1	6.237900354E-3
10.120000000000001	4.717625504E-3	-1.453233620E-1	5.721294143E-3
10.13	5.201181141E-3	-1.602136288E-1	5.282632015E-3
10.14	4.615340247E-3	-1.735588572E-1	6.269509162E-3
10.15	3.144390847E-3	-1.824822969E-1	6.210950923E-3
10.16	2.677559414E-3	-1.858144713E-1	5.233774816E-3
10.17	2.661998289E-3	-1.816279294E-1	4.788854313E-3
10.18	2.652972646E-3	-1.716107209E-1	3.698868614E-3
10.19	2.636064615E-3	-1.559165195E-1	3.386820363E-3
10.200000000000001	3.165488053E-3	-1.360069445E-1	3.264917680E-3
10.21	2.988721162E-3	-1.117391565E-1	2.287741586E-3
10.22	2.545396695E-3	-8.325579275E-2	2.458860678E-3
10.23	1.945642292E-3	-5.620420877E-2	1.711991636E-3
10.24	9.483182086E-4	-3.231243088E-2	3.302068061E-4
10.25	-3.684470428E-5	-1.003503693E-2	-6.114527093E-5
10.26	-4.047162308E-4	9.875167403E-3	-6.114527093E-5
10.27	-3.970273180E-4	2.183883031E-2	-1.892803033E-3
10.28	-1.008525808E-3	3.144283553E-2	-2.389647360E-3
10.290000000000001	-1.979323815E-3	3.897047914E-2	-2.656198187E-3
10.3	-2.939973939E-3	4.526594365E-2	-2.378842810E-3
10.31	-2.630948357E-3	4.742427875E-2	-2.670698414E-3
10.32	-2.273827181E-3	4.970649226E-2	-1.724139526E-3
10.33	-2.914508443E-3	5.265932216E-2	-1.061145807E-3
10.34	-1.900613126E-3	5.725299132E-2	-2.390810344E-3
10.35	-1.250203724E-3	6.143189962E-2	-1.693729994E-3
10.36	-1.240129731E-3	6.827232517E-2	-1.071145232E-3
10.370000000000001	1.224170256E-4	7.723638053E-2	-3.949093221E-4
10.38	-1.337264892E-3	8.637960373E-2	-1.011459480E-4
10.39	-2.175668934E-3	9.464638542E-2	5.894430217E-4
10.4	-2.145443511E-3	1.044216255E-1	2.271798303E-3
10.41	-2.122489238E-3	1.135364073E-1	2.818854307E-3
10.42	-2.814611112E-3	1.227702354E-1	2.091898555E-3
10.43	-3.052193274E-3	1.303585197E-1	4.743722684E-3
10.44	-3.024554361E-3	1.342129592E-1	4.283137355E-3
10.450000000000001	-3.001897388E-3	1.386172919E-1	5.271580479E-3
10.46	-2.981747055E-3	1.427137189E-1	4.259032301E-3
10.47	-2.953883932E-3	1.473674185E-1	4.554871946E-3
10.48	-2.923661897E-3	1.507469157E-1	4.778854330E-3
10.49	-2.893439964E-3	1.567840995E-1	4.786716744E-3
10.5	-4.426690227E-3	1.628932757E-1	4.011086360E-3
10.51	-4.802996151E-3	1.673126425E-1	5.386900879E-3
10.52	-5.556957981E-3	1.736806057E-1	4.202402285E-3
10.53	-5.712548244E-3	1.782072182E-1	3.029210253E-3
10.540000000000001	-4.875402734E-3	1.797785693E-1	3.664010895E-3
10.55	-5.477968321E-3	1.800186306E-1	3.847162122E-3
10.56	-3.985799455E-3	1.701650198E-1	3.035813135E-3
10.57	-2.829898366E-3	1.573608960E-1	1.238420114E-3
10.58	-1.824044424E-3	1.393088161E-1	9.473841754E-4
10.59	-1.668422113E-3	1.151910679E-1	-7.205471747E-4
10.6	-2.500115138E-3	8.817839379E-2	-1.832911209E-3
10.61	-1.760601981E-3	5.854521226E-2	-1.103471726E-3
10.620000000000001	-2.493259814E-3	2.791653017E-2	-1.837377857E-3
10.63	-8.623712192E-4	2.603492347E-3	-3.704703093E-3
10.64	2.235754739E-4	-1.571446678E-2	-4.028333191E-4
10.65	3.139233937E-4	-3.496460339E-2	-3.557507596E-3
10.66	1.207050975E-3	-4.448129341E-2	-3.037067372E-3
10.67	-5.099680146E-4	-4.933132408E-2	-3.861814446E-3
10.68	2.324327757E-4	-5.021806315E-2	-4.859151389E-3
10.69	2.116244982E-3	-4.702553750E-2	-3.512307540E-4
10.700000000000001	1.310318741E-3	-4.365298929E-2	-2.810265617E-3
10.71	1.252972603E-3	-3.941476447E-2	-3.911628903E-3
10.72	2.181283350E-3	-3.882627752E-2	-2.094953855E-3
10.73	1.268190646E-3	-4.033330917E-2	-2.956283417E-3
10.74	1.232972637E-3	-4.567624241E-2	-2.048476110E-3
10.75	1.223180430E-3	-5.487752904E-2	-1.061507508E-3
10.76	1.213106466E-3	-6.789557916E-2	-1.051011840E-3
10.77	2.487746495E-4	-8.073331404E-2	-8.694759326E-5
10.78	1.211584181E-3	-9.507558257E-2	8.916172300E-4
10.790000000000001	2.502887908E-4	-1.065194709E-1	2.838764554E-3
10.8	2.162645144E-3	-1.199600647E-1	2.860940101E-3
10.81	2.165552415E-3	-1.315668615E-1	4.742030862E-3
10.82	3.031263038E-3	-1.382059191E-1	2.818854307E-3
10.83	1.188173254E-3	-1.438360596E-1	2.856647429E-3
10.84	3.017010152E-3	-1.476595753E-1	3.708308124E-3
10.85	2.062438842E-3	-1.511884521E-1	1.986292767E-3
10.86	2.110842804E-3	-1.512176401E-1	4.599761137E-3
10.870000000000001	2.934658433E-3	-1.520865806E-1	1.905802365E-3
10.88	2.149097200E-3	-1.535840498E-1	2.744656349E-3
10.89	3.931310317E-3	-1.506155972E-1	1.839685568E-3
10.9	3.998050418E-3	-1.493107045E-1	2.027155779E-3
10.91	4.658138542E-3	-1.462110317E-1	3.627936614E-3
10.92	2.757651556E-3	-1.415758262E-1	1.663478099E-3
10.93	1.969061093E-3	-1.322405958E-1	-8.001699016E-5
10.94	2.799364840E-3	-1.213683617E-1	-1.865932374E-4
10.950000000000001	2.521489951E-3	-1.058314832E-1	-9.034891447E-4
10.96	1.063627428E-3	-8.894441005E-2	-2.945014203E-4
10.97	2.178833088E-3	-6.842482482E-2	-1.840117864E-3
10.98	-1.155528570E-3	-4.740713404E-2	-1.284898575E-3
10.99	-9.911954409E-4	-2.278742019E-2	-2.951145763E-3
11.0	-3.168871774E-4	4.665034780E-4	-3.112653581E-3
11.01	-1.461099350E-3	2.435133649E-2	-3.931145216E-3
11.02	-2.537206887E-3	4.047716297E-2	-3.756933068E-3
11.03	6.251927231E-5	5.816684707E-2	-3.327719569E-3
11.040000000000001	4.655383908E-4	7.179465760E-2	-4.541765738E-3
11.05	-1.292920562E-3	8.093098893E-2	-3.368990354E-3
11.06	-1.861864438E-3	8.429533809E-2	-4.738075765E-3
11.07	-1.297272855E-3	8.353535745E-2	-4.183558186E-3
11.08	-1.837364198E-3	8.092594547E-2	-4.514060642E-3
11.09	-1.299344578E-3	7.494152571E-2	-3.001145865E-3
11.1	-1.800318630E-3	7.052518041E-2	-3.237854378E-3
11.11	-1.525232847E-3	6.711709053E-2	-3.508010071E-3
11.120000000000001	-2.733131518E-3	6.738490865E-2	-1.784866942E-3
11.13	-2.235256433E-3	7.081834247E-2	-8.050777692E-4
11.14	-2.149759888E-3	7.887317001E-2	1.794855603E-4
11.15	-2.720737304E-4	9.230691388E-2	6.155251957E-4
11.16	-9.613575058E-4	1.084865318E-1	1.738376030E-4
11.17	-1.508526027E-3	1.276199614E-1	1.151058492E-3
11.18	-2.874042861E-3	1.452031687E-1	1.546381590E-3
11.19	-2.860910506E-3	1.629968373E-1	1.458300153E-3
11.200000000000001	-3.448443917E-3	1.771349285E-1	2.201775849E-3
11.21	-4.443134030E-3	1.858264875E-1	1.477399736E-3
11.22	-3.747183033E-3	1.927056772E-1	2.490558988E-3
11.23	-4.374410944E-3	1.932753947E-1	1.838854482E-3
11.24	-5.646742198E-3	1.889134698E-1	2.174827961E-3
11.25	-5.613015949E-3	1.821856688E-1	2.479079472E-3
11.26	-5.576293767E-3	1.721805288E-1	1.848854278E-3
11.27	-5.180889978E-3	1.621203962E-1	1.494627936E-3
11.28	-4.512121750E-3	1.509483429E-1	1.612952144E-3
11.290000000000001	-3.726876293E-3	1.381181305E-1	9.940859327E-4
11.3	-3.223157424E-3	1.266853284E-1	-1.643708651E-3
11.31	-3.214080660E-3	1.165659826E-1	-1.414228864E-3
11.32	-1.413004005E-3	1.060419063E-1	-2.391405040E-3
11.33	-1.800365788E-3	9.391609026E-2	-2.163981944E-3
11.34	-1.954072760E-3	7.885060918E-2	-1.405757523E-3
11.35	-9.609939696E-4	6.335055737E-2	-2.803212100E-3
11.36	-3.927074160E-4	4.546907045E-2	-3.503475354E-3
11.370000000000001	-3.870273117E-4	2.530655963E-2	-2.941145594E-3
11.38	-3.914960691E-4	4.934348507E-3	-3.821490178E-3
11.39	4.888060884E-4	-1.411788152E-2	-4.911145414E-3
11.4	1.996177433E-3	-3.223399869E-2	-4.911145414E-3
11.41	2.508281183E-3	-4.634429845E-2	-4.915836929E-3
11.42	2.031187917E-3	-5.725415658E-2	-4.458891871E-3
11.43	1.977483883E-3	-6.517432675E-2	-3.955984295E-3
11.44	1.510095283E-3	-6.856763352E-2	-3.961145724E-3
11.450000000000001	9.967509549E-4	-6.896027069E-2	-3.966132842E-3
11.46	9.818173005E-4	-6.686244425E-2	-3.480114527E-3
11.47	9.963159200E-4	-6.278797494E-2	-2.502938727E-3
11.48	9.570878684E-4	-5.926593254E-2	-2.031145836E-3
11.49	4.829726540E-4	-5.776937275E-2	-2.554429098E-3
11.5	-3.683369624E-5	-5.862343489E-2	1.298455849E-4
11.51	5.669618600E-4	-6.333910638E-2	2.320993776E-3
11.52	9.132245269E-4	-7.297649395E-2	7.838502479E-4
11.53	2.091640966E-3	-8.355088796E-2	4.402709021E-4
11.540000000000001	2.796011118E-3	-9.731028754E-2	3.088623775E-4
11.55	2.891615863E-3	-1.133924105E-1	1.001983111E-3
11.56	2.712525559E-3	-1.299586621E-1	1.838854482E-3
11.57	3.427641254E-3	-1.474885656E-1	1.838854482E-3
11.58	3.050213316E-3	-1.628114404E-1	2.422257465E-3
11.59	2.246945517E-3	-1.736975831E-1	4.000160751E-3
11.6	2.236871554E-3	-1.807986334E-1	2.985144455E-3
11.61	2.220620622E-3	-1.830733416E-1	1.838854482E-3
11.620000000000001	2.819184337E-3	-1.793759978E-1	1.845103961E-3
11.63	3.170324529E-3	-1.715564544E-1	1.848854278E-3
11.64	4.397892928E-3	-1.575115540E-1	6.011365552E-4
11.65	4.439246673E-3	-1.411093506E-1	-9.467330614E-5
11.66	3.415228256E-3	-1.216794660E-1	-7.261575861E-4
11.67	4.320866376E-3	-1.017676112E-1	-3.990960601E-4
11.68	2.331629866E-3	-8.289930819E-2	-7.106115510E-4
11.69	1.032972604E-3	-6.443451943E-2	-1.694608348E-3
11.700000000000001	3.623651609E-4	-4.755292137E-2	-2.674910075E-3
11.71	7.308882431E-4	-3.279500897E-2	-2.303229772E-3
11.72	1.718185863E-3	-2.080932331E-2	-2.686358717E-3
11.73	-5.028556100E-5	-1.050715794E-2	-2.974079453E-3
11.74	-1.599600839E-3	-5.666829821E-4	-2.971145357E-3
11.75	-1.155522324E-3	1.070652072E-2	-3.685435559E-3
11.76	-8.770273175E-4	2.104855725E-2	-4.675513327E-3
11.77	-8.696650043E-4	3.151395946E-2	-5.662650435E-3
11.78	-1.588419031E-3	4.289537382E-2	-5.192316703E-3
11.790000000000001	-3.650222920E-4	5.594423044E-2	-6.420660308E-3
11.8	1.229726834E-4	6.718647689E-2	-6.167813612E-3
11.81	-6.199865151E-4	7.834791150E-2	-5.188186153E-3
11.82	-8.470273219E-4	8.658257600E-2	-3.445169814E-3
11.83	-2.369764512E-3	9.380385159E-2	-3.008954324E-3
11.84	-2.781261470E-3	9.715989854E-2	-3.791551646E-3
11.85	-1.989297065E-3	9.549212698E-2	-2.441598690E-3
11.86	-2.541927335E-3	9.440241170E-2	-2.836199820E-3
11.870000000000001	-1.138230192E-3	9.436775290E-2	-6.560562994E-4
11.88	-7.588469068E-4	9.448046456E-2	-1.011459480E-4
11.89	-2.350120181E-3	9.532591634E-2	6.995280402E-4
11.9	-1.854192369E-3	1.009971883E-1	1.685032483E-3
11.91	-2.485248571E-3	1.084106275E-1	1.017023694E-3
11.92	-4.239049923E-3	1.215705513E-1	8.588542838E-4
11.93	-4.484275723E-3	1.368366288E-1	1.696782949E-3
11.94	-2.769152586E-3	1.531375020E-1	9.935426475E-4
11.950000000000001	-4.176093646E-3	1.697438963E-1	1.711437481E-3
11.96	-3.549646523E-3	1.873586995E-1	2.698687435E-3
11.97	-5.134650330E-3	1.964040590E-1	1.084687762E-3
11.98	-4.464850465E-3	2.034475778E-1	1.742109390E-3
11.99	-3.457452220E-3	2.042534490E-1	2.739433523E-3
12.0	-4.218651645E-3	1.971316662E-1	1.061187098E-3
12.01	-4.279596007E-3	1.856749079E-1	2.680165609E-3
12.02	-3.355112964E-3	1.682696189E-1	1.476453266E-4
12.030000000000001	-1.436964392E-3	1.466862552E-1	8.388858204E-4
12.040000000000001	-3.696717277E-4	1.227909046E-1	2.335865214E-7
12.05	-3.044977710E-3	9.826281310E-2	-9.769425129E-4
12.06	-1.332534904E-3	7.773688903E-2	-1.954118723E-3
12.07	-1.227438111E-3	5.668075929E-2	-1.051817862E-3
12.08	-1.207697970E-3	3.764123216E-2	-1.958283037E-3
12.09	-1.207027316E-3	2.357106759E-2	-2.945538550E-3
12.1	-1.207027316E-3	1.167076288E-2	-2.971145357E-3
12.11	-1.197140665E-3	2.789761737E-3	-4.908932619E-3
12.120000000000001	7.452989767E-4	-3.066772132E-3	-3.964962867E-3
12.13	2.699544260E-3	-8.872614485E-3	-4.934357834E-3
12.14	1.723509357E-3	-1.560250721E-2	-3.023727185E-3
12.15	2.682788431E-3	-2.326301800E-2	-6.865232766E-3
12.16	2.647674329E-3	-2.897415922E-2	-4.951145346E-3
12.17	1.692972601E-3	-3.653539866E-2	-4.918596985E-3
12.18	1.653174086E-3	-4.312125156E-2	-4.011349789E-3
12.19	7.595411830E-4	-5.059998246E-2	-4.819999748E-3
12.200000000000001	1.628111157E-3	-5.811530764E-2	-2.130314422E-3
12.21	6.929726232E-4	-6.819892394E-2	-3.745001333E-3
12.22	7.610803078E-4	-7.522750532E-2	-1.506575477E-4
12.23	1.585991702E-3	-8.199510568E-2	-1.071145232E-3
12.24	6.729726572E-4	-8.617303460E-2	-9.050899587E-4
12.25	7.618251675E-4	-9.254064089E-2	7.872251379E-4
12.26	1.630973633E-3	-9.711131118E-2	8.376244226E-5
12.27	1.713882360E-3	-1.015693736E-1	1.838854482E-3
12.280000000000001	2.550677295E-3	-1.062010647E-1	1.951326075E-3
12.290000000000001	2.529304094E-3	-1.120507562E-1	2.579175461E-3
12.3	2.623468401E-3	-1.195080952E-1	1.112802551E-3
12.31	3.295872089E-3	-1.273148682E-1	2.550137248E-3
12.32	2.711855062E-3	-1.363358152E-1	1.143516662E-3
12.33	4.505755603E-3	-1.476425310E-1	2.679995681E-3
12.34	5.142059523E-3	-1.561112963E-1	1.850447504E-3
12.35	4.287967123E-3	-1.629657801E-1	2.024036242E-3
12.36	4.257745045E-3	-1.692105167E-1	2.848854442E-3
12.370000000000001	4.229339461E-3	-1.706077960E-1	2.672657374E-3
12.38	4.023927952E-3	-1.640875615E-1	1.510217657E-3
12.39	2.825980672E-3	-1.537100050E-1	-6.918098080E-5
12.4	1.438690465E-3	-1.368761355E-1	-2.568632299E-4
12.41	2.196630753E-3	-1.157057486E-1	-1.016917881E-3
12.42	2.168596653E-3	-9.053183425E-2	-9.989575571E-4
12.43	2.150710289E-3	-6.423736720E-2	-1.210586446E-3
12.44	1.684826921E-3	-3.593388450E-2	-2.648363884E-3
12.450000000000001	4.192956569E-4	-1.107317738E-2	-4.428499359E-3
12.46	6.783119598E-4	1.015957496E-2	-3.428291663E-3
12.47	-2.880187991E-4	2.753815942E-2	-4.402136879E-3
12.48	6.496855232E-4	3.770420981E-2	-3.209105317E-3
12.49	-1.049643366E-3	4.503679809E-2	-4.196468726E-3
12.5	-1.481672400E-3	4.765094723E-2	-4.913926824E-3
12.51	-4.900153585E-4	4.768181035E-2	-5.201013398E-3
12.52	-8.127977020E-5	4.814601223E-2	-6.191259203E-3
12.530000000000001	-7.670273181E-4	4.792139460E-2	-6.596775812E-3
12.540000000000001	-4.683778817E-4	4.858253728E-2	-5.609417587E-3
12.55	2.029726639E-4	5.188394024E-2	-4.934298412E-3
12.56	-4.231293546E-4	5.776111951E-2	-4.308588614E-3
12.57	-1.733724976E-3	6.655820389E-2	-2.984447959E-3
12.58	-1.072014037E-3	7.660875452E-2	-3.322028525E-3
12.59	-4.529425651E-4	8.852936960E-2	-3.636462585E-3
12.6	-1.029893255E-3	1.015221375E-1	-2.314011794E-3
12.61	-8.138391854E-4	1.127873877E-1	-7.022083341E-4
12.620000000000001	-3.374870389E-3	1.216225678E-1	-4.484313767E-4
12.63	-3.831325486E-3	1.303071681E-1	3.877746447E-4
12.64	-2.942365673E-3	1.377720513E-1	2.086148207E-3
12.65	-3.509235723E-3	1.436495933E-1	1.246746769E-3
12.66	-3.870186413E-3	1.475810045E-1	1.449816173E-3
12.67	-3.632445976E-3	1.521667049E-1	1.651306193E-3
12.68	-3.241572217E-3	1.576816891E-1	2.415406695E-3
12.69	-3.953663613E-3	1.630920728E-1	1.428065824E-3
12.700000000000001	-4.186041849E-3	1.671925645E-1	8.588542838E-4
12.71	-5.269668393E-3	1.710248376E-1	4.379053029E-4
12.72	-4.805660989E-3	1.742164973E-1	7.539323460E-4
12.73	-4.233562257E-3	1.753989451E-1	1.413484352E-3
12.74	-4.641404710E-3	1.727063676E-1	-4.581626808E-4
12.75	-4.678672262E-3	1.680154254E-1	-1.592064879E-3
12.76	-3.661125271E-3	1.598937671E-1	-1.056433826E-3
12.77	-2.648355764E-3	1.482015918E-1	-1.041572047E-3
12.780000000000001	-2.583932658E-3	1.315702051E-1	-1.497771998E-3
12.790000000000001	-2.099983028E-3	1.121622396E-1	-3.436777893E-3
12.8	-6.162559491E-4	8.979499248E-2	-3.934595080E-3
12.81	-6.199655764E-4	6.470062656E-2	-3.449165581E-3
12.82	-9.679128647E-5	4.079688276E-2	-4.436419198E-3
12.83	8.325098202E-4	1.858467686E-2	-4.398465889E-3
12.84	8.229726817E-4	-5.159002345E-4	-3.931145216E-3
12.85	3.010995759E-4	-1.810633208E-2	-4.458398562E-3
12.86	3.765678198E-4	-3.133092611E-2	-4.916599622E-3
12.870000000000001	8.184999163E-4	-3.978941061E-2	-4.921145583E-3
12.88	1.366307028E-3	-4.457907356E-2	-5.475682943E-3
12.89	1.787296569E-3	-4.493757288E-2	-5.354892128E-3
12.9	1.219380108E-3	-4.357313770E-2	-4.936896365E-3
12.91	1.373880841E-3	-4.164215073E-2	-4.370237284E-3
12.92	1.198914741E-3	-3.931851272E-2	-5.123361395E-3
12.93	1.378381095E-3	-3.816446785E-2	-4.174919989E-3
12.94	1.766925125E-3	-3.955558899E-2	-2.997193334E-3
12.950000000000001	5.753983395E-4	-4.330195644E-2	-3.001145865E-3
12.96	1.018703774E-3	-5.075176628E-2	-1.793023638E-3
12.97	2.348666829E-3	-6.231079222E-2	1.778656128E-4
12.98	2.068469210E-3	-7.704852813E-2	-3.474620360E-4
12.99	2.312778984E-3	-9.313980308E-2	-4.485013029E-4
13.0	1.997180151E-3	-1.098991705E-1	5.286748525E-4
13.01	9.994090398E-4	-1.237033205E-1	2.187238424E-4
13.02	1.951318219E-3	-1.360410232E-1	1.180482018E-3
13.030000000000001	3.240991983E-3	-1.479699185E-1	2.497021871E-3
13.040000000000001	2.208455072E-3	-1.549882019E-1	2.818854307E-3
13.05	2.904470701E-3	-1.577243341E-1	2.146241949E-3
13.06	4.845063136E-3	-1.582031939E-1	2.518775596E-3
13.07	4.724716681E-3	-1.560307216E-1	2.818854307E-3
13.08	3.714330953E-3	-1.529581556E-1	2.825940843E-3
13.09	3.401491436E-3	-1.484893159E-1	2.828854476E-3
13.1	3.371266046E-3	-1.419684753E-1	2.127009367E-3
13.11	4.766479558E-3	-1.368981691E-1	4.334175525E-4
13.120000000000001	4.529813429E-3	-1.297537799E-1	6.398616023E-4
13.13	3.509843811E-3	-1.222979606E-1	9.063110623E-4
13.14	3.230377998E-3	-1.112685042E-1	1.858315405E-4
13.15	2.454781228E-3	-1.004763338E-1	-1.534287200E-3
13.16	1.452668871E-3	-8.670943966E-2	-1.985785968E-3
13.17	4.630986263E-4	-6.905350956E-2	-1.973391787E-3
13.18	2.508017005E-4	-4.850421209E-2	-3.505635118E-3
13.19	2.529726721E-4	-2.826136077E-2	-3.148713603E-3
13.200000000000001	2.529726721E-4	-6.828590610E-3	-1.377587983E-3
13.21	-1.317033525E-3	1.407983002E-2	-3.348232063E-3
13.22	-8.926231305E-4	3.229162297E-2	-5.521828707E-3
13.23	-7.070273269E-4	4.822395431E-2	-5.891145612E-3
13.24	-1.509685852E-3	6.205565366E-2	-5.080212039E-3
13.25	-8.504950004E-4	6.817588762E-2	-7.374044100E-3
13.26	1.215607263E-4	7.352090159E-2	-5.393267440E-3
13.27	-1.366904443E-3	7.315694380E-2	-4.098461855E-3
13.280000000000001	8.456328224E-4	7.090921041E-2	-4.799649867E-3
13.290000000000001	-4.057237778E-4	6.769133074E-2	-4.941145177E-3
13.3	-2.358763292E-3	6.516505068E-2	-2.386100724E-3
13.31	-2.598232917E-3	6.278503306E-2	-2.872984167E-3
13.32	-1.719070450E-3	6.561323561E-2	-3.000014096E-3
13.33	-1.598085071E-3	7.076774739E-2	-3.721291366E-4
13.34	-1.578994827E-3	7.867869256E-2	-7.016163591E-5
13.35	-1.558846890E-3	8.936151778E-2	8.106030228E-4
13.36	2.302680116E-4	1.046121785E-1	-8.541874926E-6
13.370000000000001	3.929726671E-4	1.207310063E-1	1.710601546E-3
13.38	-2.317316943E-3	1.370107517E-1	1.849540580E-3
13.39	-2.498251802E-3	1.535069088E-1	2.768848122E-3
13.4	-1.550860120E-3	1.671512774E-1	9.649049842E-4
13.41	-2.412449832E-3	1.789699719E-1	2.727842092E-3
13.42	-4.321296142E-3	1.887933835E-1	1.877110419E-3
13.43	-3.428665784E-3	1.929277202E-1	2.787848441E-3
13.44	-3.377508907E-3	1.930114468E-1	2.818854307E-3
13.450000000000001	-4.311176450E-3	1.881528985E-1	2.818854307E-3
13.46	-5.268204642E-3	1.821460196E-1	1.847955741E-3
13.47	-5.237102916E-3	1.702329188E-1	1.848835390E-3
13.48	-3.262151694E-3	1.572166199E-1	1.842654975E-3
13.49	-4.148486398E-3	1.419110356E-1	-1.042474057E-3
13.5	-1.276315786E-3	1.287836871E-1	1.818898489E-3
13.51	-3.129166366E-3	1.127052885E-1	-1.050867025E-3
13.52	-2.122120854E-3	9.704624811E-2	-1.041145469E-3
13.530000000000001	-1.207977974E-3	8.358973423E-2	-1.124326559E-3
13.540000000000001	-2.126526614E-3	7.204803315E-2	-3.040207381E-3
13.55	-2.060577784E-3	5.696693896E-2	-3.914695699E-3
13.56	-1.073463108E-3	4.317510933E-2	-3.054061314E-3
13.57	-2.272618457E-4	3.266128975E-2	-3.961145724E-3
13.58	-9.714079675E-4	1.608114684E-2	-3.882937033E-3
13.59	9.084315087E-4	2.420854052E-3	-3.067476356E-3
13.6	1.893789498E-3	-1.027675929E-2	-4.156562939E-3
13.61	2.760932668E-3	-2.300936317E-2	-5.931144799E-3
13.620000000000001	2.423482903E-3	-3.610457728E-2	-5.932238960E-3
13.63	-6.475284874E-5	-4.550958002E-2	-5.826531507E-3
13.64	7.829726566E-4	-5.346412248E-2	-5.084252656E-3
13.65	7.816551714E-4	-5.781350792E-2	-5.563803872E-3
13.66	9.079451247E-4	-6.066716217E-2	-3.148900724E-3
13.67	1.457210152E-3	-6.013451992E-2	-3.713917601E-3
13.68	-2.054878855E-4	-5.925773650E-2	-2.193548898E-3
13.69	2.725490228E-4	-5.737897319E-2	-2.714867325E-3
13.700000000000001	2.380246371E-3	-5.873739059E-2	-9.073157064E-4
13.71	5.719668253E-4	-6.072448339E-2	-2.739146135E-4
13.72	4.838634007E-4	-6.644517821E-2	-7.229446579E-4
13.73	3.448029176E-3	-7.507505157E-2	8.688544531E-4
13.74	2.615026822E-3	-8.741701718E-2	1.061541369E-3
13.75	2.772533403E-3	-1.027864682E-1	1.233084052E-3
13.76	3.285261358E-3	-1.191697838E-1	-4.736248675E-4
13.77	2.909194719E-3	-1.376164812E-1	1.406007080E-3
13.780000000000001	4.184733882E-3	-1.549658405E-1	3.262021510E-4
13.790000000000001	3.179692359E-3	-1.677763980E-1	2.072134782E-3
13.8	2.420541938E-3	-1.764578604E-1	2.828854476E-3
13.81	2.896535717E-3	-1.796959295E-1	2.583314609E-3
13.82	4.337815773E-3	-1.764456347E-1	1.851432631E-3
13.83	4.317667012E-3	-1.684666324E-1	1.861507101E-3
13.84	4.027460143E-3	-1.559212812E-1	1.604253296E-3
13.85	3.287368849E-3	-1.395147932E-1	9.016560891E-4
13.86	2.982516095E-3	-1.224426081E-1	3.480721896E-4
13.870000000000001	2.254121823E-3	-1.008632683E-1	-7.461203414E-4
13.88	2.523405480E-3	-8.131801300E-2	-6.310872506E-4
13.89	2.883040387E-3	-6.349861355E-2	-1.991145159E-3
13.9	1.878815609E-3	-4.723588380E-2	-2.298955636E-3
13.91	8.814915260E-4	-3.240602287E-2	-3.279379124E-3
13.92	-1.091900576E-4	-2.035721178E-2	-3.941145385E-3
13.93	-7.570272885E-4	-8.725095837E-3	-3.941145385E-3
13.94	-7.535564936E-4	1.168531742E-3	-3.941145385E-3
13.950000000000001	-1.090871102E-3	9.753099731E-3	-3.941145385E-3
13.96	-1.355150989E-3	1.919604278E-2	-4.295784179E-3
13.97	-7.207200470E-4	2.760389417E-2	-5.283034510E-3
13.98	-7.270272929E-4	3.607653677E-2	-5.535773536E-3
13.99	-7.270272929E-4	4.572835375E-2	-5.307534917E-3
14.0	-1.106811539E-3	5.417891828E-2	-5.527446300E-3
14.01	-1.697027228E-3	6.153824492E-2	-4.935135763E-3
14.02	-9.004398674E-4	6.959362054E-2	-3.746264140E-3
14.030000000000001	-5.357003150E-4	7.657823752E-2	-2.816371073E-3
14.040000000000001	-1.250021164E-3	8.169892425E-2	-3.149769680E-3
14.05	-6.770272847E-4	8.587535647E-2	-2.445542495E-3
14.06	-6.726662602E-4	9.028036982E-2	-2.583764400E-3
14.07	-1.092770305E-3	9.435223958E-2	-2.035580404E-3
14.08	-1.618009329E-3	9.891741430E-2	-7.200171293E-4
14.09	-1.597861688E-3	1.032614710E-1	-1.395868629E-5
14.1	-2.029503278E-3	1.094782298E-1	-1.085803122E-3
14.11	-2.977068153E-3	1.169535870E-1	-1.637475262E-4
14.120000000000001	-2.981584891E-3	1.260843796E-1	8.640480120E-4
14.13	-2.437502641E-3	1.377573965E-1	-1.537794437E-3
14.14	-2.887765550E-3	1.496089780E-1	-1.132568736E-3
14.15	-4.337647447E-3	1.612795166E-1	2.824561890E-3
14.16	-4.786717112E-3	1.730815166E-1	3.798854319E-3
14.17	-4.783672890E-3	1.833034789E-1	1.769438462E-3
14.18	-4.711921053E-3	1.905055926E-1	3.987096160E-4
14.19	-4.221049482E-3	1.937404554E-1	8.688544531E-4
14.200000000000001	-4.196225885E-3	1.920642447E-1	1.932772144E-3
14.21	-3.639655476E-3	1.843369729E-1	2.307903675E-3
14.22	-2.632241423E-3	1.716634747E-1	2.377840062E-4
14.23	-2.721168581E-3	1.530777528E-1	-1.059900380E-3
14.24	-2.567375105E-3	1.314351196E-1	-1.045449021E-3
14.25	-2.119713024E-3	1.077314963E-1	-1.600972312E-3
14.26	-1.522421621E-3	8.297240710E-2	-2.005299342E-3
14.27	-1.107027299E-3	6.002763944E-2	-8.410008429E-4
14.280000000000001	-1.095040545E-3	3.867817550E-2	-2.977905206E-3
14.290000000000001	9.016448434E-5	2.203698266E-2	-4.346481590E-3
14.3	1.454886607E-3	8.842451659E-3	-3.961145724E-3
14.31	6.208602790E-4	-2.577229776E-4	-4.570309540E-3
14.32	-7.272477319E-4	-3.989630954E-3	-4.324634186E-3
14.33	1.542444106E-4	-7.098406427E-3	-4.584964013E-3
14.34	2.118670640E-3	-1.026969219E-2	-4.310076760E-3
14.35	2.168140234E-3	-1.243194015E-2	-4.605977808E-3
14.36	1.816385139E-3	-1.551663302E-2	-4.305576210E-3
14.370000000000001	1.812972583E-3	-1.990706201E-2	-4.623964388E-3
14.38	4.995695637E-4	-2.724175581E-2	-5.617949734E-3
14.39	-1.302168675E-4	-3.647539460E-2	-4.606296340E-3
14.4	-1.201423854E-4	-4.596823993E-2	-4.655869172E-3
14.41	1.239961383E-3	-5.535043148E-2	-3.604156563E-3
14.42	1.818906778E-3	-6.595493397E-2	-2.321921720E-3
14.43	1.798758850E-3	-7.626821681E-2	-1.341778602E-3
14.44	1.081955619E-3	-8.333815954E-2	-1.068327384E-3
14.450000000000001	1.506844794E-3	-8.985131330E-2	-1.078401768E-3
14.46	1.750981504E-3	-9.707735985E-2	-3.700970693E-4
14.47	3.149803866E-3	-1.028527712E-1	6.070787978E-4
14.48	2.887658611E-3	-1.079511303E-1	1.259754721E-4
14.49	3.327787498E-3	-1.131014142E-1	-1.211455415E-4
14.5	2.782714460E-3	-1.199801135E-1	6.262335045E-4
14.51	3.282317770E-3	-1.291229662E-1	2.368350523E-3
14.52	4.995936353E-3	-1.372547154E-1	2.064596492E-3
14.530000000000001	4.622289471E-3	-1.442010557E-1	1.848854278E-3
14.540000000000001	4.379201101E-3	-1.517566968E-1	1.856778228E-3
14.55	3.565195132E-3	-1.579502443E-1	1.075070260E-3
14.56	3.346829032E-3	-1.605927950E-1	8.869261632E-4
14.57	3.318535208E-3	-1.584732046E-1	8.970000114E-4
14.58	2.499090372E-3	-1.537250100E-1	1.014143223E-4
14.59	3.923964287E-3	-1.437527591E-1	7.583837012E-4
14.6	2.595856269E-3	-1.293523462E-1	1.170347224E-4
14.61	3.075081642E-3	-1.099216907E-1	-8.516980127E-4
14.620000000000001	2.362731792E-3	-9.001056217E-2	-1.818800061E-3
14.63	1.371033440E-3	-6.626440891E-2	-1.110615306E-3
14.64	1.232972637E-3	-4.298021766E-2	-2.669524177E-3
14.65	1.232972637E-3	-2.006097861E-2	-3.778979203E-3
14.66	3.603141199E-4	-7.247820804E-4	-3.037301469E-3
14.67	1.114066621E-3	1.797015759E-2	-2.921145255E-3
14.68	-5.247526944E-4	2.694968151E-2	-3.808452324E-3
14.69	1.404935158E-4	3.821495110E-2	-4.796740004E-3
14.700000000000001	2.329726595E-4	4.537995553E-2	-5.793100413E-3
14.71	-6.579371264E-4	4.935961228E-2	-6.781240064E-3
14.72	-1.635254550E-3	4.854001111E-2	-6.861145640E-3
14.73	-1.697693055E-3	4.822646181E-2	-6.870479971E-3
14.74	-1.697027228E-3	4.706268753E-2	-5.027147332E-3
14.75	1.519887970E-4	4.860244408E-2	-4.911145414E-3
14.76	-6.835265840E-4	4.937852181E-2	-4.920701691E-3
14.77	-1.651516418E-3	5.480333447E-2	-5.864895136E-3
14.780000000000001	1.146563066E-3	6.317160742E-2	-2.106851149E-3
14.790000000000001	-1.622669565E-3	7.158644495E-2	-2.949545856E-3
14.8	-1.667320055E-3	8.562465662E-2	-2.015344967E-3
14.81	-1.657099703E-3	9.960998007E-2	-2.011073089E-3
14.82	-6.573278679E-4	1.131725325E-1	-7.114701379E-5
14.83	-2.552140591E-3	1.263181071E-1	-9.610782603E-5
14.84	-6.408491419E-4	1.392949072E-1	-2.016870455E-3
14.85	-3.496126979E-3	1.495423491E-1	8.245117156E-4
14.86	-3.455532046E-3	1.575675872E-1	-1.101145739E-3
14.870000000000001	-3.369722143E-3	1.618889468E-1	-1.101145739E-3
14.88	-2.492410594E-3	1.670435531E-1	-9.697180642E-4
14.89	-4.315463789E-3	1.678380203E-1	1.787787140E-3
14.9	-4.227379873E-3	1.694143760E-1	8.588542838E-4
14.91	-3.285020227E-3	1.690735167E-1	7.939637496E-4
14.92	-3.326876231E-3	1.676918043E-1	-1.111453723E-4
14.93	-4.114357668E-3	1.653973068E-1	-1.905409318E-4
14.94	-3.270921476E-3	1.629225675E-1	-1.167717057E-3
14.950000000000001	-4.030364732E-3	1.590845067E-1	-1.860720384E-3
14.96	-3.023866515E-3	1.516999615E-1	-2.832989187E-4
14.97	-2.241931962E-3	1.422957621E-1	-2.018913613E-3
14.98	-2.842599487E-3	1.260482956E-1	-2.233193195E-3
14.99	-9.831583070E-4	1.114371153E-1	-3.824748647E-3
15.0	-2.568085197E-4	9.166275899E-2	-3.082264840E-3
15.01	-1.095615388E-3	7.019563101E-2	-3.791364107E-3
15.02	-1.087027333E-3	4.750267333E-2	-2.941145594E-3
15.030000000000001	-7.825412873E-4	2.681000644E-2	-3.400216852E-3
15.040000000000001	5.441105866E-4	7.245380991E-3	-5.881145443E-3
15.05	-9.196312850E-4	-1.037491924E-2	-5.882853594E-3
15.06	-1.070273217E-4	-2.266744700E-2	-5.891145612E-3
15.07	2.514489499E-4	-3.217020032E-2	-5.710978765E-3
15.08	1.822972566E-3	-3.659867216E-2	-5.299694297E-3
15.09	1.624411503E-3	-3.925878035E-2	-6.686596225E-3
15.1	8.308917617E-4	-3.774506954E-2	-5.707217067E-3
15.11	1.034151596E-3	-3.544820214E-2	-4.719966778E-3
15.120000000000001	1.582349393E-3	-3.337649497E-2	-4.171768700E-3
15.13	1.038568638E-3	-3.231585349E-2	-4.489953342E-3
15.14	1.329256961E-3	-3.315865523E-2	-3.449617213E-3
15.15	8.070128118E-5	-3.870819762E-2	-4.470786621E-3
15.16	5.680293695E-4	-4.787520130E-2	-2.746202363E-3
15.17	9.516657979E-5	-5.885505404E-2	-1.766351785E-3
15.18	1.072270540E-3	-7.049372707E-2	-1.043818688E-3
15.19	2.038565230E-3	-8.616694296E-2	-7.873081330E-4
15.200000000000001	2.975445333E-3	-1.016543724E-1	1.826161964E-4
15.21	3.350449318E-3	-1.170295367E-1	5.921236953E-4
15.22	2.912220138E-3	-1.301899824E-1	-1.141161399E-4
15.23	3.563836743E-3	-1.420680669E-1	1.772962823E-4
15.24	3.536735231E-3	-1.531028660E-1	8.588542838E-4
15.25	3.516585137E-3	-1.581248168E-1	8.588542838E-4
15.26	3.496436180E-3	-1.608975117E-1	1.179144021E-3
15.27	3.800586333E-3	-1.610750653E-1	1.838854482E-3
15.280000000000001	4.087881200E-3	-1.589149796E-1	1.507430221E-3
15.290000000000001	4.435141806E-3	-1.536870145E-1	5.268111125E-4
15.3	5.955810273E-3	-1.461036070E-1	-1.075808943E-4
15.31	5.278421866E-3	-1.368453742E-1	6.154714050E-4
15.32	5.230699252E-3	-1.253268925E-1	1.144972057E-3
15.33	4.435415958E-3	-1.136874896E-1	-4.447727602E-4
15.34	2.428270115E-3	-1.016666620E-1	-6.549321405E-4
15.35	1.209036910E-3	-8.787928171E-2	-8.086202844E-4
15.36	1.976916690E-3	-7.516697527E-2	-2.380122193E-3
15.370000000000001	2.332557098E-3	-6.108975112E-2	-2.560937602E-3
15.38	3.620329953E-4	-4.564411722E-2	-2.384536250E-3
15.39	-3.706933238E-4	-3.027057842E-2	-2.951145763E-3
15.4	-2.305285744E-4	-1.415901312E-2	-3.373261397E-3
15.41	7.749805372E-5	1.552432093E-3	-4.360599083E-3
15.42	3.040210476E-4	1.740202263E-2	-4.474441434E-3
15.43	-3.330733018E-4	3.074544767E-2	-4.819053426E-3
15.44	-6.902273512E-4	4.285023981E-2	-6.346954034E-3
15.450000000000001	-1.732349250E-3	5.359558230E-2	-6.881145979E-3
15.46	-1.261322970E-3	6.123884149E-2	-6.420193685E-3
15.47	1.844034361E-4	6.637856176E-2	-5.911145950E-3
15.48	2.323635582E-4	6.803427906E-2	-5.435841016E-3
15.49	-7.520524859E-4	6.668632414E-2	-5.428677132E-3
15.5	-1.236836764E-3	6.482868830E-2	-4.936477018E-3
15.51	-1.209794466E-3	6.445789360E-2	-3.971145148E-3
15.52	-1.231189047E-3	6.504154324E-2	-3.461786100E-3
15.530000000000001	-1.175146303E-3	6.764576594E-2	-2.479807753E-3
15.540000000000001	-1.225623010E-3	7.361657997E-2	-1.502549934E-3
15.55	-1.135006500E-3	8.294186782E-2	-5.199651720E-4
15.56	-1.737266427E-3	9.496366360E-2	-7.663900057E-5
15.57	-2.590324856E-3	1.097475794E-1	-8.671315195E-5
15.58	-2.554457992E-3	1.276144549E-1	4.505168206E-4
15.59	-2.514159289E-3	1.462039338E-1	8.688544531E-4
15.6	-3.047168855E-3	1.634518687E-1	1.430578044E-3
15.610000000000001	-3.429429549E-3	1.771020951E-1	1.263999202E-3
15.620000000000001	-4.563543804E-3	1.869871336E-1	8.588542838E-4
15.63	-5.328983836E-3	1.927940239E-1	1.448273555E-3
15.64	-5.298761758E-3	1.936750992E-1	1.838854482E-3
15.65	-4.664620397E-3	1.901607684E-1	1.234934971E-3
15.66	-4.264554304E-3	1.820127645E-1	8.588542838E-4
15.67	-3.625887547E-3	1.700935304E-1	8.651657881E-4
15.68	-3.850921402E-3	1.556265897E-1	-3.764074991E-4
15.69	-2.274885017E-3	1.389841630E-1	-1.074685352E-3
15.700000000000001	-3.108796442E-3	1.242261032E-1	-1.064611687E-3
15.71	-2.792054863E-3	1.086581487E-1	-1.702112267E-3
15.72	-2.096981647E-3	9.462803456E-2	-1.369639232E-3
15.73	-2.073515608E-3	8.277230614E-2	-1.703220180E-3
15.74	-7.349981450E-4	7.009781989E-2	-2.683744819E-3
15.75	-7.868510198E-4	5.557238139E-2	-2.991145695E-3
15.76	2.739516262E-4	4.326712309E-2	-2.991145695E-3
15.77	-5.053792261E-4	3.089396657E-2	-3.675321681E-3
15.780000000000001	1.004156313E-3	1.939869864E-2	-5.365231252E-3
15.790000000000001	1.137243080E-3	7.864935448E-3	-5.931144799E-3
15.8	1.498807214E-4	-1.769133498E-3	-6.644236882E-3
15.81	1.323740776E-3	-1.122839275E-2	-5.470377185E-3
15.82	1.115338465E-3	-2.163499612E-2	-6.406413438E-3
15.83	8.554738075E-4	-3.076350742E-2	-5.448875665E-3
15.84	8.529726308E-4	-3.785212718E-2	-5.703279514E-3
15.85	2.336448052E-3	-4.363760014E-2	-4.442376225E-3
15.860000000000001	5.409916745E-4	-4.916355005E-2	-5.500461117E-3
15.870000000000001	6.289458511E-4	-5.161192654E-2	-5.187378829E-3
15.88	-6.838649615E-4	-5.238238248E-2	-4.979015529E-3
15.89	1.222701822E-3	-5.598705569E-2	-3.424066861E-3
15.9	1.806936076E-3	-5.878182546E-2	-2.243374343E-3
15.91	1.786788148E-3	-6.419387506E-2	-4.650667132E-4
15.92	1.758474015E-3	-7.100237183E-2	7.009776110E-4
15.93	1.744731201E-3	-7.792318064E-2	7.118725956E-5
15.94	2.516337959E-3	-9.095452261E-2	7.054827419E-4
15.950000000000001	1.825609238E-3	-1.027711856E-1	-7.839238402E-4
15.96	1.646045245E-3	-1.164202588E-1	-2.717012225E-4
15.97	2.462591602E-3	-1.301722424E-1	3.225632071E-3
15.98	3.421081986E-3	-1.445689451E-1	1.267020530E-3
15.99	4.378110164E-3	-1.558023721E-1	1.710049124E-3
16.0	4.476693769E-3	-1.657664460E-1	2.697299152E-3
16.01	4.455302397E-3	-1.703986658E-1	1.961858060E-3
16.02	4.435154060E-3	-1.724709787E-1	1.026560313E-4
16.03	5.286372437E-3	-1.682408151E-1	1.658536496E-3
16.04	3.580602230E-3	-1.605481499E-1	9.803120452E-4
16.05	4.260428726E-3	-1.453358199E-1	8.888544191E-4
16.06	3.404052459E-3	-1.273535113E-1	-8.969349344E-4
16.07	2.385638016E-3	-1.055394460E-1	-1.323717326E-4
16.080000000000002	2.294263426E-3	-8.466090493E-2	-9.685449482E-4
16.09	2.283543924E-3	-6.336913635E-2	-2.869725619E-3
16.1	2.263967368E-3	-4.592908296E-2	-2.981145526E-3
16.11	3.859634830E-4	-2.889510025E-2	-4.848578358E-3
16.12	3.029726803E-4	-1.571099596E-2	-2.093880900E-3
16.13	3.126987343E-4	-7.517565199E-3	-2.944300263E-3
16.14	3.129726633E-4	4.264593244E-3	-2.010735956E-3
16.15	3.129726633E-4	1.028669027E-2	-2.958804727E-3
16.16	-6.519887057E-4	1.617014631E-2	-4.920964635E-3
16.17	-6.491651984E-4	2.199674098E-2	-2.975465257E-3
16.18	-1.617027271E-3	2.487703242E-2	-4.921581766E-3
16.19	-1.600041645E-3	2.973190563E-2	-3.968131175E-3
16.2	-6.036997632E-4	3.749498633E-2	-4.917080970E-3
16.21	3.229726464E-4	4.708336385E-2	-4.024093812E-3
16.22	2.848017080E-4	5.572077822E-2	-5.854015901E-3
16.23	-6.923814586E-4	6.510694913E-2	-3.971145148E-3
16.240000000000002	-1.563816746E-3	7.256738928E-2	-3.918477625E-3
16.25	-6.370273061E-4	7.997961481E-2	-2.881131776E-3
16.26	-7.701097953E-4	8.801317047E-2	-1.119410725E-3
16.27	-2.415558655E-3	9.403489387E-2	-2.041145260E-3
16.28	-6.684077018E-4	9.823738066E-2	-1.877545520E-3
16.29	-1.555201374E-3	1.032766379E-1	-2.589193171E-6
16.3	-1.630786113E-3	1.098500116E-1	7.811477368E-4
16.31	-2.482783533E-3	1.165487605E-1	-8.236551973E-6
16.32	-2.442487680E-3	1.249346658E-1	8.588542838E-4
16.330000000000002	-2.286120517E-3	1.353288192E-1	9.773429727E-4
16.34	-1.530332768E-3	1.468352822E-1	1.964728843E-3
16.35	-2.496076443E-3	1.582023286E-1	2.552605373E-3
16.36	-3.312729392E-3	1.679619802E-1	1.280044465E-3
16.37	-3.136232274E-3	1.779027862E-1	3.504804272E-3
16.38	-2.437286985E-3	1.825699318E-1	1.693849634E-3
16.39	-3.397497952E-3	1.855867680E-1	1.032633727E-3
16.4	-4.032467060E-3	1.835127543E-1	1.858854448E-3
16.41	-3.193422131E-3	1.757796170E-1	1.330698167E-3
16.42	-3.171392852E-3	1.640473133E-1	-8.852086396E-4
16.43	-2.951717200E-3	1.491155999E-1	-2.686431729E-4
16.44	-2.142974950E-3	1.302961241E-1	-1.237680375E-3
16.45	-1.715158928E-3	1.090181273E-1	-2.009044093E-3
16.46	-3.758609185E-4	8.680136915E-2	-2.212154296E-3
16.47	-1.347461670E-3	6.563162920E-2	-2.530276631E-3
16.48	-1.651658193E-3	4.553034722E-2	-1.238830126E-3
16.490000000000002	-3.796012551E-4	2.907631689E-2	-2.461088480E-3
16.5	-3.974288027E-4	1.497725085E-2	-3.708806490E-3
16.51	1.540836633E-3	3.949648266E-3	-3.220734565E-3
16.52	5.487541946E-4	-3.542803899E-3	-3.437466947E-3
16.53	-1.670273187E-4	-7.355453121E-3	-2.783413499E-3
16.54	1.015433837E-4	-1.061343327E-2	-5.476593245E-3
16.55	1.081606127E-3	-1.188686886E-2	-6.343877924E-3
16.56	1.777136032E-3	-1.287680016E-2	-5.227139456E-3
16.57	1.762972668E-3	-1.606915199E-2	-5.627901736E-3
16.580000000000002	1.459412163E-3	-1.874453131E-2	-4.640651105E-3
16.59	1.382180814E-3	-2.436982545E-2	-4.272030192E-3
16.6	2.086197871E-3	-3.228554061E-2	-4.321156508E-3
16.61	1.085267985E-3	-4.109776584E-2	-2.994434478E-3
16.62	2.065894077E-3	-5.147994732E-2	-3.001145865E-3
16.63	2.359197992E-3	-6.334759804E-2	-2.330785361E-3
16.64	1.018185968E-3	-7.542325550E-2	-1.742955679E-3
16.65	9.720058944E-5	-8.740716575E-2	-1.619133925E-3
16.66	2.993220218E-6	-9.654265346E-2	1.678959457E-4
16.67	-8.611277382E-4	-1.060216457E-1	-7.189795026E-4
16.68	4.879646896E-4	-1.140898976E-1	2.582546368E-4
16.69	1.679089420E-3	-1.216375817E-1	8.588542838E-4
16.7	2.432752264E-3	-1.276582638E-1	8.588542838E-4
16.71	3.580879173E-3	-1.327938458E-1	1.253908639E-3
16.72	4.351160846E-3	-1.374853492E-1	2.241158813E-3
16.73	5.466256044E-3	-1.418299689E-1	2.409299868E-3
16.740000000000002	5.430213153E-3	-1.451973975E-1	2.259912226E-3
16.75	4.556074104E-3	-1.475479219E-1	1.556490080E-3
16.76	3.419764633E-3	-1.488329182E-1	3.247162310E-4
16.77	3.394019255E-3	-1.483115144E-1	8.833309506E-4
16.78	3.373871328E-3	-1.452273593E-1	4.474456495E-4
16.79	3.353723400E-3	-1.382278078E-1	-5.251058558E-4
16.8	3.319479708E-3	-1.261145340E-1	-5.759874798E-4
16.81	2.810945145E-3	-1.103925523E-1	-5.093104031E-4
16.82	2.268430680E-3	-9.227084311E-2	-1.001450959E-3
16.830000000000002	1.293166289E-3	-7.215008827E-2	-1.468587510E-3
16.84	7.825948814E-4	-5.039814936E-2	-2.445763677E-3
16.85	1.262972679E-3	-2.888396278E-2	-2.931145425E-3
16.86	7.537140778E-4	-8.022248141E-3	-3.435260093E-3
16.87	7.843373170E-4	1.015100904E-2	-3.911145623E-3
16.88	-8.109025713E-4	2.326703279E-2	-4.435052212E-3
16.89	-1.595297458E-3	3.240617966E-2	-4.375280615E-3
16.9	-6.870273143E-4	3.798990198E-2	-4.454344487E-3
16.91	-6.870273143E-4	4.172018629E-2	-4.360626134E-3
16.92	-6.870273143E-4	4.216315305E-2	-4.474504602E-3
16.93	-6.870273143E-4	4.164090503E-2	-4.911145414E-3
16.94	-6.812898507E-4	4.072545512E-2	-4.348875528E-3
16.95	-6.770272847E-4	3.967844183E-2	-3.936956742E-3
16.96	-6.770272847E-4	4.289271473E-2	-3.364284487E-3
16.97	-9.881390045E-5	4.853265912E-2	-3.551280755E-3
16.98	2.869377172E-4	5.646936308E-2	-2.768296328E-3
16.990000000000002	2.829726677E-4	6.652321850E-2	-3.194603674E-3
17.0	-9.165109581E-4	7.864390280E-2	-2.749296020E-3
17.01	-2.858538475E-3	9.354669081E-2	-2.007403305E-3
17.02	-2.943783097E-3	1.063221810E-1	-2.644389483E-3
17.03	-2.557807991E-3	1.195477586E-1	-3.017551819E-3
17.04	-2.514625195E-3	1.329381899E-1	-1.763947281E-3
17.05	-2.470809684E-3	1.445675261E-1	-4.453701898E-4
17.06	-2.443770535E-3	1.539082994E-1	1.188013815E-3
17.07	-2.416920274E-3	1.623704502E-1	1.185322126E-3
17.080000000000002	-3.708286611E-3	1.669364921E-1	1.523038877E-3
17.09	-3.648691031E-3	1.703119685E-1	1.838854482E-3
17.1	-3.981132418E-3	1.719414359E-1	1.160119923E-3
17.11	-3.567042974E-3	1.712754954E-1	8.588542838E-4
17.12	-3.931966459E-3	1.693159448E-1	8.588542838E-4
17.13	-3.492246807E-3	1.643574992E-1	2.266971818E-3
17.14	-3.185361954E-3	1.581846344E-1	1.413384674E-3
17.150000000000002	-4.578034713E-3	1.518807209E-1	1.610535166E-4
17.16	-3.622763159E-3	1.411579815E-1	-8.640305747E-5
17.17	-3.781994915E-3	1.301080249E-1	-8.033398334E-4
17.18	-2.513170812E-3	1.188710571E-1	-2.992175846E-4
17.19	-1.994247494E-3	1.056173348E-1	-1.531831668E-3
17.2	-1.235637403E-3	8.829475587E-2	-2.744867989E-3
17.21	-1.757926055E-3	7.229478591E-2	-2.963404001E-3
17.22	-1.211016647E-3	5.483998075E-2	-2.961145187E-3
17.23	-1.754540312E-3	3.765611396E-2	-3.734439840E-3
17.240000000000002	-4.039029021E-4	2.080140036E-2	-3.160600642E-3
17.25	7.807673576E-4	4.843998741E-3	-6.112324756E-3
17.26	1.860405472E-4	-6.859545120E-3	-5.291056017E-3
17.27	8.052676570E-4	-1.754740073E-2	-5.731627537E-3
17.28	1.776121188E-3	-2.494719922E-2	-5.911145950E-3
17.29	1.134359390E-3	-3.158474951E-2	-5.911145950E-3
17.3	9.813828771E-4	-3.326823172E-2	-5.919556293E-3
17.31	1.805938200E-3	-3.396492469E-2	-5.089695653E-3
17.32	1.105714662E-3	-3.299118725E-2	-5.779845803E-3
17.330000000000002	1.170227681E-4	-3.172186782E-2	-5.083827691E-3
17.34	-1.702732322E-5	-3.213282648E-2	-4.097945117E-3
17.35	8.435582782E-4	-3.453782830E-2	-4.831730964E-3
17.36	1.821971428E-3	-4.059798466E-2	-3.224292437E-3
17.37	1.827633251E-4	-4.878683335E-2	-2.126041018E-3
17.38	2.602029624E-3	-6.060090817E-2	-2.030149439E-3
17.39	1.994148674E-3	-7.619070067E-2	-2.040224343E-3
17.400000000000002	1.884669218E-3	-9.242038736E-2	6.403069270E-4
17.41	1.864521557E-3	-1.082644209E-1	-2.447662564E-5
17.42	1.844370701E-3	-1.253284316E-1	8.010521581E-4
17.43	3.652366335E-3	-1.408165423E-1	8.594791965E-4
17.44	4.661186111E-3	-1.507933881E-1	1.784864227E-3
17.45	5.617663043E-3	-1.586617886E-1	2.772114146E-3
17.46	1.881738488E-3	-1.607089956E-1	9.378342982E-4
17.47	2.661061622E-3	-1.626556918E-1	3.702134514E-3
17.48	4.574054103E-3	-1.587819104E-1	1.888533418E-3
17.490000000000002	4.583690491E-3	-1.516676402E-1	-7.615403044E-5
17.5	5.513059141E-3	-1.435447263E-1	8.585191314E-4
17.51	4.506183566E-3	-1.314574207E-1	8.788227693E-4
17.52	4.444515062E-3	-1.231376192E-1	-9.110327894E-5
17.53	2.462623101E-3	-1.108254997E-1	-9.244598765E-5
17.54	2.451023963E-3	-9.749181377E-2	-1.031942117E-3
17.55	3.294498134E-3	-8.356121506E-2	-7.694935729E-5
17.56	4.559523551E-4	-7.358999924E-2	-1.087445240E-3
17.57	1.392144692E-3	-5.840394932E-2	-2.930575586E-3
17.580000000000002	1.278308745E-3	-4.776927117E-2	-2.086297062E-3
17.59	-5.670273319E-4	-3.177773600E-2	-3.941145385E-3
17.6	-6.282267199E-4	-1.789281231E-2	-3.878670997E-3
17.61	-1.388289734E-3	-5.802662510E-3	-3.030869738E-3
17.62	3.467835072E-4	8.098817647E-3	-4.018120013E-3
17.63	-4.636619858E-4	2.231733218E-2	-4.921145583E-3
17.64	3.324312323E-4	3.106508736E-2	-4.830604148E-3
17.650000000000002	-4.493097123E-4	3.954838554E-2	-4.049870581E-3
17.66	5.289644232E-4	4.633029494E-2	-5.038219105E-3
17.67	1.066305053E-3	5.328253231E-2	-5.807766549E-3
17.68	-1.268229875E-3	5.519238076E-2	-4.820515626E-3
17.69	1.784781096E-4	5.855190812E-2	-3.962450749E-3
17.7	-1.381743184E-3	6.004882885E-2	-3.971145148E-3
17.71	-5.355728613E-4	6.082300928E-2	-3.543542484E-3
17.72	-8.250675042E-4	6.281520823E-2	-1.332242421E-3
17.73	-2.316787977E-3	6.747257055E-2	-2.845713789E-3
17.740000000000002	-1.312742772E-3	7.385125628E-2	-1.866861254E-3
17.75	-4.935266048E-4	8.467980370E-2	-1.224430625E-3
17.76	-8.291793034E-4	9.465014128E-2	-1.685344131E-3
17.77	-2.583689208E-3	1.082413417E-1	9.311448629E-5
17.78	-3.327165736E-3	1.217749757E-1	8.768819938E-4
17.79	-3.280887385E-3	1.370729926E-1	6.662411041E-4
17.8	-3.252783715E-3	1.526422186E-1	2.947335547E-4
17.81	-3.230439939E-3	1.655514513E-1	1.838854482E-3
17.82	-3.422657685E-3	1.762291577E-1	2.061294223E-3
17.830000000000002	-4.377376757E-3	1.851310537E-1	2.129676279E-3
17.84	-5.089770350E-3	1.874081873E-1	3.529683094E-4
17.85	-4.573585805E-3	1.870911349E-1	1.841346559E-3
17.86	-3.330919870E-3	1.817724851E-1	1.597259838E-3
17.87	-3.770258733E-3	1.719209520E-1	8.714956711E-4
17.88	-2.492122531E-3	1.590474662E-1	1.147664223E-3
17.89	-1.054238063E-3	1.431017578E-1	1.051608875E-3
17.900000000000002	-1.319075425E-3	1.250608415E-1	-1.058282094E-3
17.91	-2.276166373E-3	1.077878742E-1	-1.048207282E-3
17.92	-2.937993773E-3	9.077036912E-2	-1.333229498E-3
17.93	-2.913941568E-3	7.540807521E-2	-2.313538506E-3
17.94	-1.981084540E-3	6.145264133E-2	-2.991145695E-3
17.95	-2.906397625E-4	5.061766396E-2	-2.987912523E-3
17.96	-6.228806272E-4	4.085693276E-2	-2.981145526E-3
17.97	-2.951447131E-4	3.182653784E-2	-3.975645865E-3
17.98	-6.016809673E-4	2.320276775E-2	-5.243538930E-3
17.990000000000002	7.217495922E-4	1.527477763E-2	-3.961145724E-3
18.0	1.979366503E-3	7.408488084E-3	-4.667955185E-3
18.01	1.972972684E-3	-4.729976096E-5	-5.921146120E-3
18.02	1.601313658E-3	-7.574349347E-3	-5.924899755E-3
18.03	1.358127720E-3	-1.629317847E-2	-5.931144799E-3
18.04	1.202064517E-3	-2.495970966E-2	-5.548739880E-3
18.05	3.986518664E-4	-3.354725149E-2	-4.561490006E-3
18.06	1.375889844E-3	-4.048447867E-2	-4.372163824E-3
18.07	1.144353207E-3	-4.583228078E-2	-4.556835688E-3
18.080000000000002	4.045325192E-4	-5.064261430E-2	-3.573785024E-3
18.09	5.541626553E-4	-5.435587718E-2	-3.011145289E-3
18.1	1.258309540E-3	-5.966755461E-2	-1.737112053E-3
18.11	2.460661907E-3	-6.529203460E-2	-5.190330324E-4
18.12	1.898475537E-3	-7.227470219E-2	-1.071145232E-3
18.13	2.322653029E-3	-8.012810133E-2	-1.797871002E-4
18.14	3.264962158E-3	-8.901604844E-2	8.742092949E-4
18.150000000000002	2.819166616E-3	-9.967157278E-2	4.016704716E-4
18.16	2.678437715E-3	-1.103435902E-1	3.485694443E-4
18.17	4.125674148E-3	-1.240804689E-1	1.335894682E-3
18.18	4.583202350E-3	-1.386287304E-1	1.354484819E-3
18.19	3.564840704E-3	-1.496308660E-1	-1.242303002E-4
18.2	2.562793143E-3	-1.592121357E-1	-9.846784395E-5
18.21	2.046852705E-3	-1.644356014E-1	1.374974282E-3
18.22	2.583997319E-3	-1.643122948E-1	2.367462781E-3
18.23	4.012967873E-3	-1.606920382E-1	1.797613948E-3
18.240000000000002	4.446810640E-3	-1.529691724E-1	8.842416206E-4
18.25	4.411127946E-3	-1.413128194E-1	8.943154350E-4
18.26	3.291454971E-3	-1.254705075E-1	3.619337513E-4
18.27	2.391752718E-3	-1.061703527E-1	-6.097003475E-4
18.28	2.371604708E-3	-8.737285284E-2	-1.582486393E-3
18.29	1.792939610E-3	-6.805489792E-2	-3.025622715E-4
18.3	1.367140744E-3	-4.891794531E-2	-1.908771823E-3
18.31	1.357066742E-3	-3.257252068E-2	-2.787689085E-3
18.32	1.346991837E-3	-1.931041181E-2	-3.153380943E-3
18.330000000000002	1.336917240E-3	-7.943345346E-3	-3.941145385E-3
18.34	1.326843277E-3	1.164310524E-3	-4.541825470E-3
18.35	1.322972671E-3	9.055312808E-3	-4.313215367E-3
18.36	1.316695332E-3	1.506499630E-2	-3.941145385E-3
18.37	7.446336177E-5	1.993182282E-2	-4.563575841E-3
18.38	-6.370273061E-4	2.351555749E-2	-4.291365859E-3
18.39	-6.305264517E-4	2.572664120E-2	-4.578230324E-3
18.400000000000002	-6.204524573E-4	2.950010886E-2	-4.927720541E-3
18.41	-1.255314653E-3	3.556524841E-2	-4.279560576E-3
18.42	-9.181921210E-4	4.291653851E-2	-5.268816180E-3
18.43	-5.970273275E-4	5.054885440E-2	-5.251856933E-3
18.44	-5.901565376E-4	5.945648582E-2	-4.267810136E-3
18.45	-5.800814659E-4	6.884927561E-2	-1.926013187E-3
18.46	1.039422588E-4	7.887629267E-2	-3.095114867E-3
18.47	-9.762245208E-4	8.775488766E-2	-3.978239554E-3
18.48	-1.320470772E-4	9.786070052E-2	-1.178353165E-3
18.490000000000002	-9.820233154E-4	1.064580399E-1	-7.838781042E-5
18.5	-2.914646913E-3	1.152951505E-1	6.286403057E-4
18.51	-3.397460188E-3	1.225725339E-1	-1.291721590E-3
18.52	-4.783125213E-3	1.316242548E-1	-1.336966462E-3
18.53	-3.741538565E-3	1.385538520E-1	-1.098685442E-3
18.54	-3.224186065E-3	1.454823601E-1	-3.550004722E-4
18.55	-3.939671699E-3	1.537580956E-1	1.385644893E-3
18.56	-4.125980637E-3	1.620717802E-1	-1.203726679E-3
18.57	-2.565320715E-3	1.675916576E-1	9.987567859E-4
18.580000000000002	-2.888593427E-3	1.716009237E-1	1.848854278E-3
18.59	-3.845621545E-3	1.736840818E-1	-4.908101611E-4
18.6	-4.794590397E-3	1.730353179E-1	-2.913457872E-4
18.61	-4.147444391E-3	1.678717780E-1	7.040377192E-4
18.62	-3.128105606E-3	1.599859986E-1	-7.033319163E-4
18.63	-1.315645328E-3	1.460390972E-1	-2.313137670E-4
18.64	-1.779117527E-3	1.298400055E-1	-8.632360865E-4
18.650000000000002	-2.729486281E-3	1.120447458E-1	-1.004284760E-3
18.66	-2.026562952E-3	9.114960961E-2	-2.668055346E-3
18.67	-1.956170525E-4	6.992963322E-2	-2.952567058E-3
18.68	-7.563299896E-4	4.891710559E-2	-2.951145763E-3
18.69	8.059302407E-4	3.315150202E-2	-2.942419030E-3
18.7	1.044170727E-3	1.743261593E-2	-2.941145594E-3
18.71	1.732497105E-4	6.019028707E-3	-4.689466078E-3
18.72	7.192261109E-5	-2.125718784E-3	-4.034051458E-3
18.73	1.823644736E-3	-4.608973411E-3	-4.815505535E-3
18.740000000000002	2.297522331E-4	-6.472659807E-3	-4.911145414E-3
18.75	5.297267428E-5	-7.409969197E-3	-4.012284856E-3
18.76	2.752811973E-3	-9.162293498E-3	-4.846502034E-3
18.77	2.059468292E-3	-9.187660113E-3	-5.834650126E-3
18.78	1.974181560E-3	-1.180087898E-2	-4.980380605E-3
18.79	1.044957609E-3	-1.828570265E-2	-3.993130332E-3
18.8	1.918694404E-3	-2.588305119E-2	-4.885954485E-3
18.81	1.020457390E-3	-3.531805828E-2	-3.046114773E-3
18.82	1.913355048E-3	-4.477982122E-2	-3.930602661E-3
18.830000000000002	3.837770911E-3	-5.795219497E-2	-3.003979284E-3
18.84	1.934450754E-3	-7.103315824E-2	-2.026566607E-3
18.85	1.883142649E-3	-8.288964151E-2	-1.049390393E-3
18.86	8.839172573E-4	-9.447865382E-2	-1.061126915E-3
18.87	1.842783831E-3	-1.062901330E-1	8.702175544E-4
18.88	1.825845196E-3	-1.143883798E-1	-2.044304997E-3
18.89	2.772591682E-3	-1.223491309E-1	-1.527039327E-4
18.900000000000002	3.654038395E-3	-1.280860149E-1	-1.968845506E-3
18.91	2.706855774E-3	-1.346030793E-1	1.768204489E-3
18.92	3.611669365E-3	-1.399350399E-1	-7.857038992E-5
18.93	3.581447288E-3	-1.434479845E-1	9.091879368E-4
18.94	3.664793608E-3	-1.452602537E-1	1.848854278E-3
18.95	5.406677899E-3	-1.477787804E-1	1.785185190E-3
18.96	4.318360566E-3	-1.463256829E-1	8.788542498E-4
18.97	2.637430912E-3	-1.420479726E-1	8.008206062E-4
18.98	4.142522609E-3	-1.365308756E-1	1.693042827E-4
18.990000000000002	1.442018624E-3	-1.283249853E-1	2.682818528E-3
19.0	1.629594720E-3	-1.178175703E-1	8.189993316E-4
19.01	3.232648439E-3	-1.041810158E-1	-1.570570199E-4
19.02	2.340620974E-3	-8.797471122E-2	-1.125200444E-3
19.03	2.199222649E-3	-7.122326814E-2	-1.979895713E-3
19.04	1.074527844E-3	-5.373857081E-2	-1.969820185E-3
19.05	-4.812701031E-4	-3.558570537E-2	-1.823988617E-3
19.06	4.960373381E-4	-1.787361133E-2	-1.559303387E-3
19.07	1.171182971E-3	-2.155770178E-3	-4.597565903E-3
19.080000000000002	3.397274580E-4	1.198828614E-2	-3.100160371E-3
19.09	3.229726464E-4	2.210496374E-2	-4.087307489E-3
19.1	6.682818506E-4	2.907046940E-2	-4.902916091E-3
19.11	1.732446863E-3	3.589964659E-2	-4.730355209E-3
19.12	-4.689574755E-4	3.848823975E-2	-4.119215104E-3
19.13	-2.573782222E-4	3.987059490E-2	-4.913139781E-3
19.14	-2.179569351E-3	3.966704683E-2	-4.718450763E-3
19.150000000000002	-6.170272935E-4	3.945763617E-2	-3.941145385E-3
19.16	-4.020485581E-4	3.990109238E-2	-3.941145385E-3
19.17	1.331080951E-4	4.284642509E-2	-3.494545378E-3
19.18	-8.363944237E-4	4.789503758E-2	-1.991145159E-3
19.19	-1.333048053E-3	5.762590609E-2	-1.754485500E-3
19.2	-8.208632568E-4	6.896238738E-2	-1.023659503E-3
19.21	-1.544439548E-3	8.210340758E-2	-1.033733097E-3
19.22	-1.531703830E-3	9.443605455E-2	-7.829572395E-4
19.23	-1.776920197E-3	1.120695217E-1	-7.388120179E-5
19.240000000000002	-2.728328913E-3	1.271022982E-1	-8.676509630E-5
19.25	-3.382606558E-3	1.411027831E-1	-1.040299130E-4
19.26	-3.335190389E-3	1.529644129E-1	1.759000018E-4
19.27	-3.003705934E-3	1.628496001E-1	5.615995310E-4
19.28	-2.602210692E-3	1.683276053E-1	-4.256505460E-4
19.29	-3.556057685E-3	1.712103652E-1	-1.658805410E-4
19.3	-4.187261757E-3	1.720296241E-1	1.838854482E-3
19.31	-4.153710611E-3	1.698089513E-1	1.186343915E-3
19.32	-3.783258320E-3	1.648642452E-1	5.493739186E-4
19.330000000000002	-2.772638779E-3	1.587150055E-1	1.852333009E-3
19.34	-2.116369305E-3	1.521334857E-1	1.162534522E-3
19.35	-2.796967471E-3	1.444829046E-1	6.133008039E-4
19.36	-2.931645718E-3	1.354163324E-1	7.882751267E-4
19.37	-1.791635394E-3	1.251851791E-1	-1.043597509E-3
19.38	-2.602266576E-3	1.142724372E-1	-1.027297914E-3
19.39	-1.979180960E-3	1.013647437E-1	-1.786164564E-3
19.400000000000002	-1.571214349E-3	8.764136664E-2	-2.967147178E-3
19.41	-9.729552113E-4	7.272068510E-2	-3.360210247E-3
19.42	-9.670272578E-4	5.813649491E-2	-3.530748941E-3
19.43	-9.670272578E-4	4.309083430E-2	-3.364621603E-3
19.44	-1.296906313E-4	2.816248716E-2	-3.931145216E-3
19.45	5.505392136E-4	1.419310343E-2	-3.931145216E-3
19.46	4.327995056E-4	1.860299506E-3	-3.931145216E-3
19.47	5.402527316E-4	-8.093514080E-3	-4.373865258E-3
19.48	2.972677726E-6	-1.448131199E-2	-5.365707180E-3
19.490000000000002	4.601928710E-4	-1.922764227E-2	-5.443925501E-3
19.5	9.782331604E-4	-2.346417123E-2	-4.456675186E-3
19.51	5.060656947E-4	-2.573127403E-2	-3.474238422E-3
19.52	9.560263226E-4	-2.645141353E-2	-3.450115993E-3
19.53	4.990432212E-4	-2.814442829E-2	-3.951145555E-3
19.54	-4.834022939E-4	-3.080920719E-2	-3.462557496E-3
19.55	5.038478366E-4	-3.442478579E-2	-2.480270272E-3
19.56	1.485913022E-3	-4.049193650E-2	-2.514455740E-3
19.57	1.942454773E-3	-4.892876967E-2	-1.960394708E-3
19.580000000000002	1.922306757E-3	-5.969301187E-2	-5.138526927E-4
19.59	1.902157128E-3	-7.320186140E-2	-6.655310756E-5
19.6	2.408322782E-3	-8.828476440E-2	-8.211052384E-5
19.61	3.883137726E-3	-1.022539613E-1	-9.670230257E-5
19.62	3.602520892E-3	-1.163594991E-1	4.450041069E-4
19.63	3.274889910E-3	-1.304450120E-1	8.631499652E-4
19.64	3.105135444E-3	-1.433193653E-1	1.425134875E-3
19.650000000000002	2.671266066E-3	-1.524251133E-1	1.265233459E-3
19.66	4.387993843E-3	-1.579949107E-1	2.020724222E-3
19.67	5.554966968E-3	-1.610838710E-1	2.818854307E-3
19.68	4.339950453E-3	-1.587772714E-1	2.223419216E-3
19.69	3.550672911E-3	-1.530911496E-1	1.845004207E-3
19.7	2.920589544E-3	-1.451742920E-1	1.848854278E-3
19.71	3.147562615E-3	-1.348582247E-1	1.855152197E-3
19.72	4.095642542E-3	-1.217273970E-1	6.161590893E-4
19.73	3.143503089E-3	-1.072917813E-1	-7.165384936E-4
19.740000000000002	2.413408696E-3	-9.361049236E-2	-4.155340632E-4
19.75	2.383186682E-3	-7.870466802E-2	-6.455001959E-5
19.76	4.188707030E-4	-6.567315499E-2	-5.447636500E-5
19.77	9.032663901E-5	-5.416241825E-2	-4.440246201E-5
19.78	1.064246068E-3	-4.151528270E-2	-1.377326740E-3
19.79	6.975255675E-4	-3.039895323E-2	-2.669700134E-3
19.8	3.860058920E-4	-2.097154095E-2	-1.605655349E-3
19.81	-2.929410424E-4	-1.192098923E-2	-2.391135987E-3
19.82	1.059885480E-4	-2.254375778E-3	-2.971145357E-3
19.830000000000002	3.829726841E-4	8.318366433E-3	-2.971145357E-3
19.84	1.080192825E-3	1.840709874E-2	-4.394636836E-3
19.85	-8.056943075E-5	2.529708129E-2	-2.773818639E-3
19.86	1.144362684E-4	3.396735079E-2	-4.170002863E-3
19.87	-1.089278428E-3	4.069746188E-2	-4.205020150E-3
19.88	-1.577027246E-3	4.635419765E-2	-3.220245224E-3
19.89	-1.569393071E-3	5.271324064E-2	-2.981145526E-3
19.900000000000002	-8.116267031E-4	5.625689799E-2	-2.988853826E-3
19.91	-1.342014689E-3	5.962136210E-2	-2.991145695E-3
19.92	-3.073564185E-3	6.239062227E-2	-2.228948324E-3
19.93	-1.924485151E-3	6.717393250E-2	-4.665349529E-4
19.94	-7.324719941E-4	7.410060180E-2	-8.537065198E-4
19.95	-5.370272897E-4	8.216771414E-2	-1.851030417E-3
19.96	-2.110925221E-3	9.094942072E-2	3.563983931E-4
19.97	-1.644238448E-3	1.038197740E-1	-7.220392546E-4
19.98	-2.247376715E-3	1.178627083E-1	1.361220191E-3
19.990000000000002	-1.560961526E-3	1.327806801E-1	1.029542474E-3
20.0	-1.388576161E-3	1.472786814E-1	1.688613639E-3
20.01	-3.023847446E-3	1.600189787E-1	1.003393943E-3
20.02	-4.123940418E-3	1.718412202E-1	2.544275351E-3
20.03	-4.222334953E-3	1.775121315E-1	1.118933076E-3
20.04	-5.039249704E-3	1.823115663E-1	1.716065217E-3
20.05	-4.274924410E-3	1.818960580E-1	9.743934661E-4
20.06	-3.258489785E-3	1.764226353E-1	1.739598877E-3
20.07	-3.129086087E-3	1.686019703E-1	1.848854278E-3
20.080000000000002	-2.222572698E-3	1.559230767E-1	8.516771509E-5
20.09	-2.117908732E-3	1.418589499E-1	8.015885237E-4
20.1	-2.971930330E-3	1.237614192E-1	-9.036846568E-4
20.11	-2.111111895E-3	1.083344120E-1	-1.344964866E-4
20.12	-2.018346304E-3	9.089399766E-2	-9.671707518E-4
20.13	-2.911400037E-3	7.898917594E-2	-1.021731392E-3
20.14	-2.018034884E-3	6.211168953E-2	-1.951157951E-3
20.150000000000002	-1.020502413E-4	5.066271367E-2	-2.938416051E-3
20.16	-1.702732322E-5	3.957871971E-2	-2.026986509E-3
20.17	-7.315381793E-6	3.332417816E-2	-2.942916120E-3
20.18	-1.681479135E-5	2.443963527E-2	-3.930317415E-3
20.19	9.395364750E-4	1.743619721E-2	-4.917571060E-3
20.2	9.430372010E-4	1.052475450E-2	-3.957470176E-3
20.21	9.338982280E-4	5.612237413E-3	-3.952071102E-3
20.22	1.904713560E-3	-3.141219279E-3	-4.931229172E-3
20.23	9.077019169E-4	-7.015152706E-3	-4.925716974E-3
20.240000000000002	-4.679436384E-5	-1.377466889E-2	-3.961145724E-3
20.25	-7.254035937E-6	-2.051156398E-2	-3.931065489E-3
20.26	8.956422877E-4	-2.812596993E-2	-3.018856827E-3
20.27	-4.657242191E-5	-3.574163372E-2	-3.881984232E-3
20.28	6.557616194E-5	-4.409588484E-2	-2.011674390E-3
20.29	1.843289050E-3	-5.055840045E-2	-2.021145667E-3
20.3	9.129726220E-4	-5.801419147E-2	-1.955481307E-3
20.31	9.844506650E-4	-6.715743044E-2	-1.125633250E-3
20.32	1.861319926E-3	-7.612996177E-2	-1.880001052E-3
20.330000000000002	1.927606736E-3	-8.401562791E-2	-1.802815816E-4
20.34	2.779075249E-3	-9.273155714E-2	-8.911486519E-4
20.35	2.737730226E-3	-1.019460778E-1	6.623021659E-4
20.36	2.689601479E-3	-1.126383717E-1	-1.101145739E-3
20.37	2.891499068E-3	-1.214485647E-1	-8.666369205E-4
20.38	4.321148230E-3	-1.302366914E-1	7.342139849E-4
20.39	2.851370098E-3	-1.411169559E-1	1.074483770E-5
20.400000000000002	4.507293457E-3	-1.483126268E-1	7.211335777E-4
20.41	4.466997548E-3	-1.528196853E-1	3.524524123E-5
20.42	4.581909929E-3	-1.556881183E-1	1.024063007E-3
20.43	5.218772312E-3	-1.532879357E-1	1.699580248E-3
20.44	4.376103442E-3	-1.483359670E-1	1.058866969E-3
20.45	3.812753666E-3	-1.385965177E-1	1.529554914E-3
20.46	1.742967822E-3	-1.250597554E-1	1.135153084E-4
20.47	3.115169901E-3	-1.091261700E-1	7.326873537E-4
20.48	2.093663733E-3	-8.971769737E-2	-2.364281879E-4
20.490000000000002	1.096307005E-3	-7.031603327E-2	-1.213636266E-3
20.5	5.227271448E-4	-5.221259328E-2	-1.981145735E-3
20.51	1.280737133E-3	-3.550518396E-2	-1.978910180E-3
20.52	1.046522175E-3	-2.113513940E-2	-2.197596096E-3
20.53	2.929726508E-4	-9.613434131E-3	-2.951145763E-3
20.54	5.339233734E-4	-3.979453332E-4	-3.673997885E-3
20.55	1.024732784E-3	6.518029248E-3	-5.394665761E-3
20.56	2.929726508E-4	1.237208121E-2	-4.442355698E-3
20.57	2.929726508E-4	1.530295481E-2	-5.365434844E-3
20.580000000000002	2.929726508E-4	1.792864361E-2	-3.661039941E-3
20.59	2.901424967E-4	2.037443286E-2	-4.063398247E-3
20.6	4.175297317E-6	2.366065203E-2	-6.311934538E-3
20.61	-6.770272847E-4	2.726803857E-2	-4.629243761E-3
20.62	-6.739736146E-4	3.499348892E-2	-3.941145385E-3
20.63	-6.670273017E-4	4.327488202E-2	-3.634635047E-3
20.64	-3.564685320E-4	5.315299150E-2	-3.278107354E-3
20.650000000000002	-6.500818936E-4	6.331270204E-2	-3.633460671E-3
20.66	-1.629250297E-3	7.334081064E-2	-2.652987449E-3
20.67	-3.444579538E-4	8.456782513E-2	-2.340133124E-3
20.68	-1.260613030E-3	9.563954346E-2	-2.308814498E-3
20.69	-9.635649178E-4	1.057507391E-1	-1.048290695E-3
20.7	-1.929760315E-3	1.151279414E-1	-1.422109146E-3
20.71	-2.512145300E-3	1.246899006E-1	-1.325649872E-3
20.72	-3.575928311E-3	1.325864194E-1	-1.049398102E-4
20.73	-4.958516266E-3	1.395055971E-1	2.641511860E-4
20.740000000000002	-4.689784927E-3	1.460150191E-1	8.588542838E-4
20.75	-4.443627248E-3	1.532015411E-1	4.651883892E-4
20.76	-3.631639832E-3	1.595042002E-1	6.808128075E-4
20.77	-4.174527590E-3	1.655212631E-1	1.430533950E-3
20.78	-4.140065298E-3	1.679939615E-1	1.278665373E-3
20.79	-3.685577651E-3	1.679384214E-1	1.426033667E-3
20.8	-3.108250297E-3	1.658637177E-1	8.732428416E-4
20.81	-3.083637812E-3	1.604306842E-1	4.459276487E-4
20.82	-3.057952656E-3	1.517615348E-1	3.580468035E-4
20.830000000000002	-2.581374768E-3	1.400730980E-1	-4.519988687E-4
20.84	-2.477430270E-3	1.259611362E-1	-1.562631731E-3
20.85	-2.957987410E-3	1.113302303E-1	-1.021625582E-3
20.86	-1.984741730E-3	9.321792084E-2	-1.006311688E-3
20.87	-4.909593140E-4	7.527026335E-2	-1.482121527E-3
20.88	-4.753647817E-4	5.955822472E-2	-1.487860022E-3
20.89	-9.519698304E-4	4.350441782E-2	-1.982406341E-3
20.900000000000002	-4.441468061E-4	2.958460122E-2	-2.448265158E-3
20.91	5.378978727E-4	1.667385868E-2	-2.481276292E-3
20.92	4.855919287E-4	6.510493574E-3	-2.951145763E-3
20.93	5.476860929E-4	-3.296781009E-4	-4.530640272E-3
20.94	9.975437336E-4	-3.957263339E-3	-5.901145781E-3
20.95	1.521252224E-3	-4.838270774E-3	-4.822574864E-3
20.96	1.412014121E-3	-5.714707603E-3	-5.034216553E-3
20.97	9.773217730E-4	-6.591143751E-3	-5.347360084E-3
20.98	4.176617943E-4	-8.572476704E-3	-4.921145583E-3
20.990000000000002	5.712585050E-4	-1.252396396E-2	-5.495230452E-3
21.0	2.122298876E-3	-1.784940339E-2	-4.760073824E-3
21.01	2.334146997E-3	-2.584581147E-2	-3.368267603E-3
21.02	7.525917694E-4	-3.598082821E-2	-3.567358361E-3
21.03	-3.312365623E-5	-4.820106034E-2	-3.363705043E-3
21.04	1.166183650E-3	-6.082942466E-2	-2.382625154E-3
21.05	1.294787570E-3	-7.647445009E-2	-1.405448977E-3
21.06	9.166543755E-4	-9.044135283E-2	-1.666654878E-3
21.07	9.065803774E-4	-1.029207796E-1	-7.910482430E-4
21.080000000000002	1.510894605E-3	-1.145147465E-1	-9.761314264E-5
21.09	2.457900998E-3	-1.240697502E-1	-7.487830049E-4
21.1	2.121395436E-3	-1.319721043E-1	1.989298549E-4
21.11	2.418499167E-3	-1.367942374E-1	8.588542838E-4
21.12	4.031609340E-3	-1.403438800E-1	8.588542838E-4
21.13	3.962363316E-3	-1.419818350E-1	1.528950403E-3
21.14	4.292774228E-3	-1.427279738E-1	1.838854482E-3
21.150000000000002	5.239774143E-3	-1.407515421E-1	1.845841590E-3
21.16	4.809788355E-3	-1.382742868E-1	1.848854278E-3
21.17	3.799451380E-3	-1.352634924E-1	4.574878613E-4
21.18	2.784844111E-3	-1.291333120E-1	6.125643389E-4
21.19	3.194874025E-3	-1.217982269E-1	1.823866011E-4
21.2	2.003613302E-3	-1.120845060E-1	-7.874322641E-4
21.21	2.181609247E-3	-1.001306162E-1	-2.979151957E-4
21.22	2.400452494E-3	-8.662280044E-2	-1.504949765E-3
21.23	2.377811215E-3	-7.294044968E-2	-1.983564925E-3
21.240000000000002	1.301598565E-4	-5.650351719E-2	-1.973490954E-3
21.25	1.849213092E-4	-4.083019685E-2	-2.728551630E-3
21.26	4.029726502E-4	-2.424650964E-2	-3.715801393E-3
21.27	1.175000367E-3	-1.040862362E-2	-3.151239972E-3
21.28	-1.597440586E-4	3.246733922E-3	-3.720456274E-3
21.29	-5.570273023E-4	1.387793214E-2	-4.715732288E-3
21.3	-5.570273023E-4	2.206996676E-2	-4.117334496E-3
21.31	2.276853842E-4	2.505268853E-2	-3.931145216E-3
21.32	4.029726502E-4	3.013312315E-2	-5.547767529E-3
21.330000000000002	-3.960700831E-4	3.346269988E-2	-5.891145612E-3
21.34	-5.570273023E-4	3.298155232E-2	-5.076577675E-3
21.35	1.086460700E-3	3.597732691E-2	-4.921145583E-3
21.36	-2.834132779E-4	3.890051316E-2	-5.758611509E-3
21.37	2.692006123E-4	4.163674722E-2	-3.366598670E-3
21.38	4.029726502E-4	4.688843585E-2	-2.969840439E-3
21.39	-1.297962065E-3	5.505549407E-2	-2.971145357E-3
21.400000000000002	1.784920780E-4	6.527054878E-2	-2.979988390E-3
21.41	-1.326934438E-3	7.733144199E-2	-2.107274743E-3
21.42	-1.519045206E-3	9.208307336E-2	-2.010136508E-3
21.43	-1.507962262E-3	1.060458030E-1	-2.029275822E-3
21.44	-3.252574013E-3	1.208927419E-1	6.465779865E-4
21.45	-2.486517317E-3	1.350041488E-1	-1.828184796E-3
21.46	-4.190402553E-3	1.473580347E-1	6.603594872E-4
21.47	-3.372051555E-3	1.566373717E-1	-9.755592971E-4
21.48	-2.353942160E-3	1.649484001E-1	-1.101145739E-3
21.490000000000002	-3.200521576E-3	1.688247385E-1	7.629058179E-4
21.5	-2.288431557E-3	1.715407581E-1	8.588542838E-4
21.51	-3.174387570E-3	1.693900322E-1	-8.782585431E-5
21.52	-4.131755760E-3	1.662637409E-1	1.786715238E-3
21.53	-5.078975914E-3	1.602172395E-1	1.848662247E-3
21.54	-2.162551322E-3	1.489949180E-1	-8.770187628E-5
21.55	-4.048519575E-3	1.425285175E-1	-1.011900261E-4
21.56	-3.036907542E-3	1.289649672E-1	-1.061115896E-3
21.57	-2.966131905E-3	1.203055861E-1	-1.071707393E-3
21.580000000000002	-1.013558900E-4	1.055637961E-1	-2.983536903E-3
21.59	-1.972090250E-3	9.388675386E-2	-2.010893604E-3
21.6	-9.752690614E-4	8.331116688E-2	-2.032903552E-3
21.61	-7.556025333E-5	7.199227053E-2	-3.010481064E-3
21.62	-9.965518599E-4	6.165804736E-2	-3.904076897E-3
21.63	-8.795977644E-4	4.947813941E-2	-2.961145187E-3
21.64	8.417418095E-4	3.658059047E-2	-3.083625837E-3
21.650000000000002	-9.763285561E-4	2.555732816E-2	-4.852665872E-3
21.66	-7.425467941E-4	1.377352987E-2	-4.092341889E-3
21.67	1.777837985E-3	3.223331405E-3	-5.984136507E-3
21.68	1.725334084E-4	-4.318750785E-3	-6.701585210E-3
21.69	1.746995867E-3	-9.316037561E-3	-4.931145753E-3
21.7	7.773018049E-5	-1.585299516E-2	-4.931145753E-3
21.71	9.529726472E-4	-2.037306534E-2	-5.043291175E-3
21.72	1.071149872E-3	-2.324785990E-2	-5.792968623E-3
21.73	1.668389020E-3	-2.682585428E-2	-4.941145177E-3
21.740000000000002	-1.795568236E-4	-2.978527570E-2	-4.673353643E-3
21.75	-5.949635160E-4	-3.439350053E-2	-2.982586041E-3
21.76	1.764422363E-3	-3.925418877E-2	-2.842595416E-3
21.77	1.239804081E-3	-4.633906170E-2	-2.012735324E-3
21.78	2.536871686E-3	-5.696436941E-2	-2.022809475E-3
21.79	1.069797760E-3	-6.957792739E-2	-2.032883498E-3
21.8	2.210827145E-3	-8.406868601E-2	-2.042957033E-3
21.81	3.586857395E-3	-9.748284905E-2	-1.683429506E-3
21.82	3.113414920E-3	-1.133452138E-1	-2.951870709E-4
21.830000000000002	4.622797814E-3	-1.259197581E-1	-8.937565669E-4
21.84	4.367957002E-3	-1.377186407E-1	-1.211455415E-4
21.85	3.982084884E-3	-1.472889451E-1	3.066982427E-4
21.86	5.034102898E-3	-1.530998146E-1	1.838854482E-3
21.87	3.488312582E-3	-1.549615635E-1	1.838854482E-3
21.88	3.465757036E-3	-1.530789630E-1	1.603148480E-3
21.89	3.438013363E-3	-1.486251961E-1	6.183396195E-4
21.900000000000002	3.665668800E-3	-1.423772933E-1	1.417696523E-4
21.91	4.102261175E-3	-1.318405775E-1	3.663425826E-4
21.92	2.808073350E-3	-1.176278778E-1	-1.068443876E-3
21.93	1.626753498E-3	-1.040771490E-1	-7.834815767E-4
21.94	2.580931046E-3	-9.049135949E-2	-3.376555542E-4
21.95	2.957587727E-3	-7.696328793E-2	-1.028220866E-3
21.96	1.946066163E-3	-6.493850067E-2	-1.018146770E-3
21.97	1.252972603E-3	-5.417418465E-2	-1.312411047E-3
21.98	1.249824490E-3	-4.319732380E-2	-2.296512695E-3
21.990000000000002	2.988975235E-4	-3.237977596E-2	-2.961145187E-3
22.0	-1.044291587E-3	-2.159606093E-2	-2.961145187E-3
22.01	-6.055317461E-5	-1.353357790E-2	-2.627509270E-3
22.02	-6.935832612E-4	-5.862796040E-3	-3.321210050E-3
22.03	-6.835087276E-4	1.442564821E-3	-5.546325063E-3
22.04	-3.284502890E-4	1.003062654E-2	-5.266909720E-3
22.05	2.893050985E-4	1.946859308E-2	-5.541724981E-3
22.06	2.829726677E-4	2.604933750E-2	-5.287816491E-3
22.07	2.829726677E-4	3.000295858E-2	-5.153303703E-3
22.080000000000002	2.829726677E-4	3.650817054E-2	-3.941145385E-3
22.09	-4.860638420E-4	4.378282775E-2	-3.556627112E-3
22.1	-1.261201717E-3	4.962247734E-2	-3.366971011E-3
22.11	-1.474952640E-3	5.543879224E-2	-3.552182877E-3
22.12	-1.792188702E-3	6.171044296E-2	-2.981145526E-3
22.13	-1.056081251E-3	6.786561504E-2	-2.567830573E-3
22.14	-1.598357384E-3	7.660697025E-2	-1.586319367E-3
22.150000000000002	-2.010285577E-3	8.619942008E-2	-1.035554315E-3
22.16	-2.098664564E-3	9.619340066E-2	-1.045629172E-3
22.17	-2.422254661E-3	1.059410336E-1	-6.089734452E-4
22.18	-3.443864871E-3	1.171187769E-1	-9.041067999E-5
22.19	-2.485152535E-3	1.291304871E-1	-1.058521147E-4
22.2	-1.891166990E-3	1.405278592E-1	-1.159258716E-4
22.21	-2.372464001E-3	1.517802194E-1	3.545855004E-4
22.22	-3.303425066E-3	1.617583928E-1	8.588542838E-4
22.23	-3.771629725E-3	1.693626845E-1	8.588542838E-4
22.240000000000002	-3.749429191E-3	1.736026059E-1	1.854125771E-3
22.25	-4.206723456E-3	1.744234652E-1	2.313968540E-3
22.26	-4.181349563E-3	1.717169629E-1	1.331944371E-3
22.27	-3.637041332E-3	1.660199739E-1	1.388240454E-3
22.28	-3.150905664E-3	1.562450017E-1	1.327591894E-3
22.29	-2.586710840E-3	1.424647737E-1	8.843030192E-4
22.3	-1.580213216E-3	1.266018592E-1	3.530870712E-4
22.31	-1.668776078E-3	1.093203972E-1	-6.995070939E-5
22.32	-2.081355984E-3	9.265722548E-2	-5.547426132E-5
