Time (s)	Acceleration x (m/s^2)	Acceleration y (m/s^2)	Acceleration z (m/s^2)
0.0	-9.142505432E-4	-8.141803369E-4	-2.858327016E-3
0.01	1.977229664E-4	-9.085246679E-4	-2.311652419E-3
0.02	-3.015577615E-4	-7.371832660E-4	-2.461079166E-3
0.03	1.634983556E-4	6.562582559E-4	-2.653940641E-3
0.04	1.388740153E-4	1.288832334E-4	-2.983191691E-3
0.05	-2.383857349E-4	-5.067083986E-4	-3.232675233E-3
0.06	2.484390553E-4	2.336987404E-4	-2.860378203E-3
0.07	2.686397137E-4	6.117170422E-4	-3.199631372E-3
0.08	-3.614736977E-4	5.047652362E-4	-3.397898721E-3
0.09	-3.823158615E-4	7.086912363E-4	-2.744956405E-3
0.1	4.074577979E-5	9.171156322E-4	-2.639176806E-3
0.11	-5.435491942E-4	1.294074870E-3	-2.575992652E-3
0.12	9.186616020E-5	1.807804283E-4	-2.666476118E-3
0.13	-2.815333950E-4	-7.519123234E-5	-1.911887348E-3
0.14	-1.100224122E-3	-1.523325857E-4	-3.108049422E-3
0.15	5.141641882E-4	6.308324257E-4	-1.621032086E-3
0.16	5.404941919E-4	1.139482054E-3	-2.260139667E-3
0.17	-3.063517353E-4	8.487225296E-4	-2.594805550E-3
0.18	-5.904126514E-4	1.431844741E-3	-2.393921126E-3
0.19	-6.259295240E-4	1.085671199E-3	-2.328744908E-3
0.2	-6.872414032E-5	7.865743778E-4	-2.756115707E-3
0.21	9.860957338E-4	1.114279850E-3	-3.195981456E-3
0.22	5.915377086E-4	1.233870589E-3	-2.671112854E-3
0.23	-2.658959600E-4	1.547699993E-3	-2.042930104E-3
0.24	-4.525520462E-5	2.251176508E-3	-2.257769960E-3
0.25	3.812680438E-4	2.489204605E-3	-2.558537588E-3
0.26	-1.121381770E-4	1.702070300E-3	-1.945217942E-3
0.27	-8.923331520E-4	2.729900927E-3	-3.209642554E-3
0.28	7.017249400E-4	2.560590983E-3	-2.804928127E-3
0.29	1.886716093E-4	3.147105139E-3	-2.298381185E-3
0.3	-3.032500351E-4	1.621201653E-3	-3.252862081E-3
0.31	8.219136409E-5	1.723609667E-3	-2.848075559E-3
0.32	-5.494061094E-4	2.515918037E-3	-2.194951891E-3
0.33	-1.199435244E-3	1.998590660E-3	-2.168355560E-3
0.34	-9.583272894E-4	1.044538528E-3	-2.819812738E-3
0.35000000000000003	-2.860994269E-4	9.970602109E-4	-2.976096249E-3
0.36	1.835804861E-4	1.222696027E-3	-2.826747323E-3
0.37	3.920926156E-4	8.214945526E-4	-2.736556207E-3
0.38	3.732467089E-4	5.297563218E-4	-2.303314077E-3
0.39	4.734072805E-5	3.271186060E-4	-2.187330202E-3
0.4	-3.470084387E-4	-2.023289686E-4	-2.590018290E-3
0.41000000000000003	-8.822560254E-5	-1.281447110E-4	-3.547401859E-3
0.42	9.754409138E-4	2.776246186E-4	-3.516057010E-3
0.43	1.068148533E-3	-8.821756393E-4	-2.571938619E-3
0.44	-1.082418508E-3	-1.086185229E-3	-3.122708458E-3
0.45	-5.882132353E-4	-1.559011490E-4	-2.965450912E-3
0.46	-4.500611226E-4	-8.913884669E-4	-2.212810727E-3
0.47000000000000003	5.690868139E-4	-1.484921011E-3	-2.098233911E-3
0.48	3.446387584E-4	-8.017416144E-4	-1.570055234E-3
0.49	-3.127788651E-5	-5.247971326E-4	-1.554903743E-3
0.5	-6.998962333E-4	-8.194223232E-4	-1.638353842E-3
0.51	-4.436810014E-4	-1.379278745E-3	-2.144579536E-3
0.52	4.786356209E-4	-1.634126550E-3	-2.895326163E-3
0.53	-3.627304445E-5	-9.361034352E-4	-2.583609850E-3
0.54	2.848363909E-4	-3.199058046E-4	-2.365226801E-3
0.55	9.784879475E-4	-1.465332383E-3	-2.964298905E-3
0.56	-9.594167736E-5	-1.746993568E-3	-1.745930479E-3
0.5700000000000001	-2.197027875E-4	-1.295892122E-3	-1.209162759E-3
0.58	-1.548091377E-4	-1.078500114E-3	-2.354500875E-3
0.59	4.531874357E-4	-1.679239757E-3	-2.744030615E-3
0.6	5.931669936E-5	-1.014270533E-3	-3.152926628E-3
0.61	-8.332220429E-6	-1.113734805E-3	-2.028676683E-3
0.62	3.994950297E-4	-1.472278908E-3	-2.253695956E-3
0.63	3.040410671E-4	-1.740786822E-3	-2.263822589E-3
0.64	-5.632714114E-4	-2.204741539E-3	-2.421797605E-3
0.65	-4.641820098E-4	-2.426412043E-3	-2.317646564E-3
0.66	-1.598881316E-5	-2.315305481E-3	-2.048060624E-3
0.67	6.410338300E-5	-1.512432187E-3	-1.904118667E-3
0.68	-6.389411309E-5	-4.228605782E-4	-1.882413328E-3
0.6900000000000001	-6.903186316E-4	-1.558335972E-3	-2.974287655E-3
0.7000000000000001	-5.367352782E-4	-1.651359018E-3	-1.776865690E-3
0.71	-2.883293160E-4	-1.507541722E-3	-2.063277617E-3
0.72	-2.345471163E-5	-1.194263777E-3	-2.343183085E-3
0.73	-7.868783975E-4	-6.417978369E-4	-1.341317281E-3
0.74	4.178258596E-4	-4.789127097E-4	-1.859887279E-3
0.75	1.327843430E-3	-5.013714075E-4	-1.727314507E-3
0.76	9.021043654E-4	4.228595471E-5	-1.797203145E-3
0.77	3.012398474E-5	4.017759045E-4	-2.287192052E-3
0.78	-1.014036026E-3	2.520566917E-5	-1.763327906E-3
0.79	-8.773358058E-4	2.890533648E-5	-1.302214722E-3
0.8	-5.057648216E-4	3.442855886E-5	-1.056021978E-3
0.81	-4.930861420E-4	1.935091191E-4	-1.435733941E-3
0.8200000000000001	-4.646264961E-4	4.047107630E-4	-2.170495197E-3
0.8300000000000001	-4.500739305E-4	8.108153691E-5	-1.683884147E-3
0.84	-5.401551092E-4	6.910053155E-4	-1.627485230E-3
0.85	-6.855341374E-4	-2.034771373E-4	-2.771856004E-3
0.86	1.427566153E-3	6.258623679E-4	-2.056390566E-3
0.87	-8.053047205E-5	1.424740080E-3	-1.418876170E-3
0.88	4.055775158E-5	-1.380577497E-4	-1.644967183E-3
0.89	-8.343453113E-4	6.384687093E-4	-8.732951979E-4
0.9	-9.393527665E-4	5.774675822E-4	-1.152672632E-3
0.91	3.550731605E-4	1.424537239E-3	-2.024764882E-3
0.92	6.977790215E-4	1.486608286E-3	-1.728230275E-3
0.93	8.822907290E-4	1.680288651E-3	-1.525686940E-3
0.9400000000000001	7.212463865E-4	1.659667176E-3	-1.990808918E-3
0.9500000000000001	-1.285993897E-4	1.426518756E-3	-2.559800698E-3
0.96	9.254214388E-5	1.417560733E-3	-2.761166332E-3
0.97	2.210602120E-4	8.435983113E-4	-2.679098330E-3
0.98	-4.225830129E-4	1.667948680E-3	-2.487845047E-3
0.99	4.588783493E-4	2.465611489E-3	-9.819144823E-4
1.0	1.364247070E-3	1.429208593E-3	-1.069002480E-3
1.01	1.223292718E-3	2.245609481E-3	-1.737855062E-3
1.02	-3.060023324E-5	2.593151389E-3	-1.546743790E-3
1.03	2.965685216E-4	1.629898917E-3	-1.804186317E-3
1.04	2.032262294E-4	2.090929363E-3	-1.827550707E-3
1.05	-1.226570846E-4	1.085172132E-3	-1.946376445E-3
1.06	1.787236827E-4	1.667121423E-3	-2.147247480E-3
1.07	-1.921862095E-4	1.700432499E-3	-1.913417117E-3
1.08	3.364568772E-5	1.353526927E-3	-1.709073921E-3
1.09	4.142375487E-4	1.067812174E-3	-1.456645338E-3
1.1	-4.040940148E-5	9.164221282E-4	-1.182082268E-3
1.11	-1.692972734E-4	1.093376224E-3	-1.331479943E-3
1.12	7.172293524E-4	7.601486083E-4	-1.225013183E-3
1.1300000000000001	9.229818339E-4	5.135122068E-4	-1.390182917E-3
1.1400000000000001	2.041788165E-4	-1.868318306E-4	-1.519345810E-3
1.1500000000000001	8.133494479E-4	-1.813520404E-4	-1.818837331E-3
1.16	-2.619553142E-4	-1.923060031E-5	-1.594930202E-3
1.17	7.283339885E-5	2.487998258E-4	-2.148225151E-3
1.18	-6.019926751E-4	-4.804165380E-4	-1.485060558E-3
1.19	2.902275161E-4	-9.082138500E-4	-5.026549501E-4
1.2	3.091733371E-4	-8.120551435E-4	-1.011281310E-3
1.21	5.850857879E-4	-4.052846121E-4	-1.063304889E-3
1.22	7.795790081E-4	3.915039543E-5	-1.282033530E-3
1.23	7.400059970E-4	-4.600051543E-4	-1.623282009E-3
1.24	7.770233522E-4	-1.559441590E-3	-1.882801890E-3
1.25	5.625139522E-4	-1.672310795E-3	-1.558078879E-3
1.26	3.470009936E-4	-6.335150529E-4	-4.299980225E-4
1.27	4.524996695E-4	-6.604694942E-4	-1.684806135E-3
1.28	-6.338859744E-4	-9.728940147E-4	-2.439317296E-3
1.29	-9.492009729E-4	-1.569825118E-3	-8.654133334E-4
1.3	-1.465755635E-4	-1.947084138E-3	-4.830775984E-4
1.31	-3.329085134E-4	-1.246203790E-3	-5.503292984E-4
1.32	-2.031170238E-4	-7.356798760E-4	-1.666305727E-3
1.33	3.799332252E-4	-8.058740924E-4	-1.077278723E-3
1.34	5.280786189E-6	-1.390551892E-3	-1.642568112E-3
1.35	-7.988917495E-5	-1.652306980E-3	-1.733135111E-3
1.36	6.537308700E-4	-1.451220638E-3	-8.688863252E-4
1.37	7.938880978E-4	-9.701051419E-4	-1.500487487E-3
1.3800000000000001	3.010689853E-4	-1.307976280E-3	-1.601933424E-3
1.3900000000000001	-3.283988968E-4	-1.836067717E-3	-1.239387043E-3
1.4000000000000001	-1.378143362E-3	-1.486512446E-3	-1.285847576E-3
1.41	-2.144396986E-3	-1.055687484E-3	-9.047887234E-4
1.42	-5.091658228E-4	-1.720779354E-3	-1.391667504E-3
1.43	2.693634807E-5	-1.786428464E-3	-8.104184726E-4
1.44	5.446224188E-4	-1.111698190E-3	-2.411618494E-4
1.45	4.158252399E-4	-1.008119512E-3	-4.113965609E-4
1.46	-3.919156538E-4	-1.277899288E-3	-4.719824890E-4
1.47	2.665327884E-4	-1.767168522E-3	-6.457115661E-4
1.48	1.071654281E-4	-1.342069815E-3	-1.278145048E-3
1.49	2.297545009E-4	-1.956961302E-3	-1.284058026E-3
1.5	-4.982140059E-4	-1.181192975E-3	-4.437297201E-4
1.51	-1.693196453E-4	-4.073214105E-4	-2.901142415E-4
1.52	3.834367405E-4	-4.041627972E-4	-5.720699653E-4
1.53	-1.373079872E-4	-3.310131975E-4	-9.640443609E-4
1.54	-1.674744489E-5	8.878338710E-5	-1.189072557E-3
1.55	3.443752030E-4	4.491439762E-4	-6.573402604E-4
1.56	5.769499364E-4	6.330324638E-4	-8.751430139E-4
1.57	1.251221741E-3	1.487968411E-3	-7.616182019E-4
1.58	-5.376281234E-5	1.663199172E-3	-1.124674936E-3
1.59	-9.160288222E-5	1.729419846E-3	-1.181386098E-3
1.6	-7.205649845E-4	1.965257042E-4	4.361540139E-4
1.61	-9.467312316E-4	1.023693779E-3	-1.829858543E-4
1.62	-6.535231507E-4	1.116296157E-3	-1.195090552E-3
1.6300000000000001	-2.127431568E-4	5.257447506E-4	8.177593351E-5
1.6400000000000001	4.402335982E-4	8.121309858E-4	-1.625882867E-4
1.6500000000000001	7.159522855E-5	1.252539660E-3	-6.231256829E-4
1.6600000000000001	6.181503242E-5	8.347349106E-4	-8.607385623E-4
1.67	3.136672369E-4	2.701315893E-4	-6.261425338E-4
1.68	1.826530625E-4	6.398460186E-4	-4.053073629E-5
1.69	1.959306180E-4	1.376081461E-3	1.614773784E-5
1.7	-3.661181278E-4	9.382701147E-4	-3.472557249E-4
1.71	-1.835400666E-4	1.084900293E-3	1.200932413E-4
1.72	-2.601445458E-4	2.284766858E-3	1.111800686E-4
1.73	-5.242760864E-4	1.593132655E-3	1.710347736E-4
1.74	1.044795710E-4	2.179583953E-3	-5.966009951E-5
1.75	-1.959377062E-4	2.044833544E-3	-3.827068714E-4
1.76	-5.922805364E-4	2.054853324E-3	1.832660201E-4
1.77	-3.230631867E-4	1.972802469E-3	8.505022131E-4
1.78	4.672640269E-4	1.473742471E-3	4.882126551E-4
1.79	8.370626127E-4	1.859289329E-3	-4.432911517E-4
1.8	-9.227703230E-4	2.068874279E-3	-1.278898706E-3
1.81	-6.855081877E-4	3.426251960E-4	-1.800496475E-4
1.82	2.241368491E-4	1.253925367E-3	2.095164514E-5
1.83	3.440152435E-4	1.069190941E-3	-2.395820332E-4
1.84	-4.421139563E-4	1.658551041E-3	2.720536293E-5
1.85	-8.098143275E-4	1.326329903E-3	-7.896748774E-4
1.86	-2.794013349E-4	7.859922258E-4	-8.380434834E-5
1.87	-3.827647823E-4	6.754053706E-4	-4.328276032E-4
1.8800000000000001	-6.392417783E-4	1.891750477E-4	1.188949721E-4
1.8900000000000001	-6.085162971E-4	-9.736218941E-5	-2.125907193E-4
1.9000000000000001	-1.283548324E-4	3.548436711E-4	-1.040909056E-3
1.9100000000000001	7.681806110E-4	2.931559308E-4	-9.767517819E-4
1.92	9.511612872E-4	-5.592513790E-4	-1.754582055E-4
1.93	2.170059119E-4	-1.402243870E-3	4.247098328E-4
1.94	9.009021258E-5	-1.322098629E-3	-1.286547962E-5
1.95	8.945487531E-5	-3.054387692E-4	-9.390459869E-5
1.96	-1.261545712E-3	-3.525671589E-4	1.106490613E-4
1.97	-1.155112908E-3	-4.310586541E-5	3.561709747E-4
1.98	-9.458336676E-4	1.031170459E-4	1.088179108E-3
1.99	5.299320018E-4	-1.384000368E-3	7.645863444E-4
2.0	8.210291484E-4	-9.945275590E-4	2.408785676E-3
2.0100000000000002	-1.156840741E-4	-7.861880295E-4	2.132514256E-3
2.02	-6.029521344E-4	-2.593953382E-4	9.795929231E-4
2.0300000000000002	-2.585338718E-4	-3.359702095E-4	-3.446540354E-4
2.04	-2.642770219E-4	-9.587654631E-4	-4.335366368E-4
2.05	3.560274517E-4	-1.193798612E-3	3.660805057E-4
2.06	1.107243512E-3	-1.151457950E-3	6.911405707E-4
2.07	-8.039387127E-4	-1.589478489E-3	2.977324771E-5
2.08	-1.680829651E-3	-1.940362500E-3	-6.069339300E-4
2.09	-6.225865974E-5	-2.201084662E-3	-5.348364142E-4
2.1	4.821895208E-4	-2.085506089E-3	3.480025518E-4
2.11	7.939576650E-4	-2.723679425E-3	-2.649567317E-4
2.12	3.127039829E-4	-1.654513561E-3	-3.269414601E-4
2.13	4.734263298E-4	-2.677285307E-3	1.130766224E-3
2.14	7.719525711E-6	-1.935152340E-3	-3.937595884E-4
2.15	5.239544449E-4	-2.408580511E-3	1.029522876E-3
2.16	5.264700333E-4	-1.387470560E-3	3.394256675E-4
2.17	5.055275835E-4	-1.937007454E-3	8.185932314E-4
2.18	-4.343397646E-4	-1.910225574E-3	6.261219569E-4
2.19	-5.079315086E-4	-1.243849032E-3	7.277591641E-4
2.2	2.246653849E-4	-9.262829625E-4	1.081016026E-3
2.21	-1.169437236E-4	-8.005515882E-4	7.707876155E-4
2.22	-7.240580140E-4	-2.043019061E-4	-3.443531852E-6
2.23	-5.323964445E-4	-6.223931717E-5	-3.053648695E-4
2.24	-6.400789977E-4	-4.774496380E-4	4.751248947E-4
2.25	7.251831594E-4	-1.582870954E-4	4.783982377E-4
2.2600000000000002	1.842934629E-4	7.430911143E-4	-1.962300320E-4
2.27	-4.295681509E-4	5.170311168E-4	1.651119535E-3
2.2800000000000002	-7.812288336E-4	3.000899606E-4	1.063554693E-3
2.29	2.645008519E-4	4.616509737E-4	1.925718367E-3
2.3000000000000003	-3.212242327E-4	5.892851068E-4	1.146809322E-3
2.31	-9.031691722E-4	6.433255722E-4	1.418334148E-4
2.32	-6.121132482E-5	7.300845807E-4	7.242797918E-4
2.33	-1.077408581E-5	6.097649315E-4	5.542594839E-4
2.34	-5.357812059E-4	2.398781436E-4	5.856532327E-4
2.35	-7.814003360E-4	1.984822369E-5	7.345195730E-4
2.36	-5.784031768E-4	3.958726636E-4	5.619920085E-4
2.37	3.254846149E-4	6.443422986E-4	8.426437303E-4
2.38	6.498523386E-4	5.516571575E-4	1.160267434E-3
2.39	-6.169060632E-4	9.462656859E-4	1.655547698E-3
2.4	-5.954340202E-4	7.033113391E-4	1.805339487E-3
2.41	7.039618422E-4	1.530720601E-4	1.672683056E-3
2.42	1.669710075E-4	1.982247103E-3	8.363980204E-4
2.43	-2.978063183E-5	1.487947433E-3	2.050081325E-4
2.44	-9.706991301E-4	1.904756681E-3	1.658543546E-4
2.45	-8.372226907E-4	1.916666622E-3	1.069520364E-3
2.46	-2.863012739E-4	1.822293681E-3	1.172641533E-3
2.47	-6.687863786E-4	2.130846586E-3	1.296005360E-3
2.48	4.468320354E-4	2.109128517E-3	1.399203996E-3
2.49	7.141401139E-4	2.014563585E-3	8.525947263E-4
2.5	-4.999699167E-5	1.683033846E-3	1.743248447E-4
2.5100000000000002	-1.019081043E-4	1.368518993E-3	5.474213384E-4
2.52	5.463339637E-5	1.927251372E-3	1.404564595E-3
2.5300000000000002	-3.151641039E-4	2.157889157E-3	5.179930843E-4
2.54	7.481254876E-4	8.568408668E-4	8.679566338E-4
2.5500000000000003	-1.272918309E-4	1.296874256E-3	2.519381634E-3
2.56	-4.181349444E-4	1.531144375E-3	1.752120435E-3
2.57	-1.656452795E-3	1.605878789E-3	1.922442332E-3
2.58	-1.514532726E-3	1.167217756E-3	2.153863629E-3
2.59	-1.963589954E-3	7.483061946E-4	6.633938266E-4
2.6	-1.764008630E-4	8.099363771E-4	1.078585234E-3
2.61	9.639334157E-4	3.539291972E-4	1.845100762E-3
2.62	1.753776943E-3	-1.426967693E-4	1.806249163E-3
2.63	1.204425075E-3	-4.246936997E-4	1.694416862E-3
2.64	2.527107557E-4	2.396395278E-4	9.092261446E-4
2.65	-2.092129531E-5	6.631364774E-4	1.095810091E-3
2.66	1.227964113E-4	1.845472065E-4	2.212984600E-3
2.67	1.823918995E-4	2.664803163E-4	1.366250769E-3
2.68	-2.195275356E-4	4.177236146E-4	7.992758756E-4
2.69	-8.388223800E-5	6.477621739E-5	1.316609506E-3
2.7	3.743447768E-4	-8.492781596E-4	1.367692324E-3
2.71	-1.884768986E-3	-2.284417584E-4	8.676037433E-4
2.72	-5.425312169E-5	-2.577679046E-4	1.062418833E-3
2.73	3.868266006E-4	-8.125448442E-4	1.657513639E-3
2.74	8.100351099E-4	-9.053605406E-5	1.230516738E-3
2.75	3.210116639E-4	-6.257727937E-4	1.760646756E-4
2.7600000000000002	3.812141406E-4	-5.679109461E-4	5.093319606E-4
2.77	8.870962031E-4	-3.955907177E-4	4.606444691E-4
2.7800000000000002	6.896549701E-4	-6.848463801E-4	8.534734805E-4
2.79	6.421460363E-4	-2.164372199E-4	1.122947747E-3
2.8000000000000003	2.484716066E-4	-1.438257555E-4	1.094913058E-3
2.81	-6.389637418E-4	-1.022788805E-3	1.241903093E-3
2.82	-7.640160949E-4	-1.389580332E-3	1.334453103E-3
2.83	-1.055803686E-3	-2.133537590E-3	2.198325793E-3
2.84	-1.093842654E-3	-2.649090930E-3	4.930553921E-4
2.85	1.105830920E-3	-1.256208191E-3	1.379160958E-3
2.86	9.458910081E-4	-9.033758159E-4	2.069628166E-3
2.87	9.469958761E-4	-1.729491600E-3	2.892332924E-3
2.88	-2.150983856E-4	-2.540103955E-3	2.957626352E-3
2.89	1.070194181E-3	-1.605407194E-3	2.519876217E-3
2.9	3.816425701E-4	-1.457020785E-3	1.609880917E-3
2.91	-9.412520721E-5	-1.048705175E-3	1.389976910E-3
2.92	1.505518371E-6	-1.083899269E-3	1.488910732E-3
2.93	-1.281000660E-4	-1.464965477E-3	1.779823310E-3
2.94	-4.465639714E-4	-1.188597208E-3	1.975717307E-3
2.95	-3.637572769E-4	-9.058928684E-4	1.536205904E-3
2.96	2.692079550E-4	-1.047031209E-3	1.703440190E-3
2.97	1.100098515E-3	-6.168275254E-4	2.041757026E-3
2.98	8.208916020E-4	-1.375362182E-4	3.585706803E-4
2.99	1.314300303E-4	-7.750220644E-4	3.926140596E-4
3.0	1.286500463E-3	6.975905967E-5	2.769019023E-3
3.0100000000000002	-8.673414990E-5	-3.551937670E-4	2.028824188E-3
3.02	-2.915282437E-4	-5.640812260E-4	1.296260678E-3
3.0300000000000002	-3.749977699E-4	-1.823697807E-4	1.240078752E-3
3.04	-3.118145685E-4	8.250728619E-5	1.207285977E-3
3.0500000000000003	-7.371735670E-4	2.398105025E-4	1.053281119E-3
3.06	-8.112051149E-5	-5.237520374E-5	2.057107289E-3
3.0700000000000003	1.558859222E-4	2.059579614E-4	1.796204933E-3
3.08	2.433513895E-4	7.027811769E-4	1.042232996E-3
3.09	6.969613531E-4	5.599025482E-4	1.610705557E-3
3.1	4.025865838E-4	6.629131376E-5	2.002996758E-3
3.11	4.274104965E-4	-3.176232853E-4	1.501493650E-3
3.12	5.159400935E-4	3.499976648E-4	2.020422666E-3
3.13	2.644170120E-4	4.451489703E-4	1.118662997E-3
3.14	-2.242661739E-4	9.804847461E-4	1.112830413E-3
3.15	6.659878482E-4	1.210924398E-3	2.175948226E-3
3.16	-3.802172398E-4	1.796843328E-3	1.500855334E-3
3.17	-8.637314649E-4	1.662202142E-3	1.888984635E-3
3.18	3.096499571E-5	1.259837988E-3	9.324666661E-4
3.19	4.260418737E-4	1.621091359E-3	8.359401131E-4
3.2	5.351365372E-4	1.260728109E-3	1.443859038E-3
3.21	1.244702658E-3	1.636584158E-3	1.795775605E-3
3.22	9.876490526E-4	2.015624981E-3	1.835702859E-3
3.23	4.404914576E-4	1.715620213E-3	2.037480128E-3
3.24	3.391029541E-4	1.400252436E-3	2.173524921E-3
3.25	-4.062916054E-5	1.448809995E-3	1.725703032E-3
3.2600000000000002	2.304083981E-4	2.188918611E-3	1.911150807E-3
3.27	6.274656162E-5	1.560055495E-3	2.690558758E-3
3.2800000000000002	3.881817013E-4	1.625036268E-3	3.262140613E-3
3.29	-5.594210376E-4	2.709561145E-3	2.645120243E-3
3.3000000000000003	-5.512888039E-4	1.477549244E-3	1.479079142E-3
3.31	5.139143873E-4	9.558334751E-4	2.341890327E-3
3.3200000000000003	1.244057987E-3	4.099063991E-4	2.590583262E-3
3.33	9.449765752E-4	8.788928789E-4	1.410164096E-3
3.34	6.957407645E-4	1.343152314E-3	7.310500364E-4
3.35	4.158293669E-4	1.525033834E-3	7.583219630E-4
3.36	1.745577697E-4	4.451291436E-4	8.937435238E-4
3.37	-3.884672522E-4	-5.608125751E-4	9.697797444E-4
3.38	-6.644880259E-4	-2.738536834E-4	1.607097562E-3
3.39	-5.683362132E-4	1.317082103E-4	1.941300192E-3
3.4	-7.339002429E-4	-6.755080422E-4	9.506469727E-4
3.41	4.360475549E-4	-7.420814647E-4	1.546001015E-3
3.42	8.747806227E-4	-7.607399381E-4	2.436779613E-3
3.43	4.176716287E-4	-4.734108843E-4	1.463568146E-3
3.44	8.741599831E-5	-7.886863924E-4	2.819135085E-3
3.45	-4.611814729E-4	-4.302063061E-4	1.764583219E-3
3.46	2.789545673E-4	-9.784628327E-4	1.989330036E-3
3.47	1.058027156E-3	-1.059087270E-3	1.281582838E-3
3.48	4.679726725E-4	-1.013604981E-3	1.663980230E-3
3.49	-6.010415577E-4	-6.796756794E-4	2.135054246E-3
3.5	-9.006120936E-4	-4.693654750E-4	2.251722498E-3
3.5100000000000002	-8.046553071E-4	-2.020224885E-4	2.070988828E-3
3.52	-6.820810204E-4	-1.037998997E-4	2.020669916E-3
3.5300000000000002	-2.663518465E-4	-9.118416151E-4	2.143643539E-3
3.54	2.675911809E-4	-1.432904605E-3	2.039959939E-3
3.5500000000000003	9.876285144E-4	-1.241948819E-3	2.260629707E-3
3.56	7.987795175E-4	-1.115436608E-3	2.176914581E-3
3.5700000000000003	1.221928883E-3	-8.001384644E-4	8.700425124E-4
3.58	-5.233832248E-5	-2.765933499E-3	1.733710185E-3
3.59	2.008596471E-4	-2.823991609E-3	2.471576353E-3
3.6	7.333200771E-5	-1.124917354E-3	1.768317558E-3
3.61	-6.229295791E-4	-3.121366511E-4	9.211799995E-4
3.62	-9.726968646E-4	-1.746442035E-3	2.349528371E-3
3.63	-1.048603927E-3	-2.481354484E-3	1.290747211E-3
3.64	-8.520336920E-4	-2.295689412E-3	1.921088360E-3
3.65	4.954579262E-4	-1.470823706E-3	2.203694903E-3
3.66	1.696667704E-3	-3.302167658E-4	1.931490720E-3
3.67	1.424888497E-3	-1.939167076E-4	2.002528362E-3
3.68	8.694505798E-4	-1.439070605E-3	1.468200359E-3
3.69	9.927717353E-4	-1.144551225E-3	2.240554107E-3
3.7	1.153382430E-3	-1.610970665E-3	2.368666545E-3
3.71	-7.230217396E-4	-4.288441870E-4	1.557567822E-3
3.72	-6.163581867E-4	-7.095966861E-4	1.409875182E-3
3.73	-9.530328223E-4	-7.204432640E-4	1.792245754E-3
3.74	-1.535855009E-3	-2.810983980E-4	2.874349635E-3
3.75	-1.249306127E-3	-1.348282027E-4	1.748765482E-3
3.7600000000000002	-6.263320543E-4	9.898129199E-5	1.201472431E-3
3.77	-1.834378647E-5	1.840281507E-4	2.588235096E-3
3.7800000000000002	9.965746278E-4	-5.502299539E-4	1.860448174E-3
3.79	1.230406088E-3	-9.870741488E-6	1.275506389E-3
3.8000000000000003	3.489585237E-4	1.203834601E-3	2.228250869E-3
3.81	4.222858556E-4	1.198498688E-3	2.372050310E-3
3.8200000000000003	1.660472386E-4	-2.023860525E-4	2.020919516E-3
3.83	6.343198513E-4	-1.380577497E-4	2.254742533E-4
3.84	5.051393501E-5	1.215907899E-4	-2.729407326E-4
3.85	-6.838158789E-4	9.879782307E-4	1.730737717E-3
3.86	5.176970156E-4	1.165038656E-4	1.996155211E-3
3.87	9.117306231E-4	6.551705669E-4	2.033467902E-3
3.88	9.178211089E-4	1.006260424E-3	1.403975174E-3
3.89	1.225661802E-3	1.699890659E-4	1.664694922E-3
3.9	3.104079330E-4	4.910416613E-4	2.165445839E-3
3.91	-8.761904273E-4	1.108333563E-3	2.370862540E-3
3.92	-8.288236517E-4	1.393904858E-3	2.314679144E-3
3.93	-2.019618815E-4	2.307005055E-3	1.588110860E-3
3.94	4.036752805E-5	2.413429451E-3	1.147081236E-3
3.95	2.472875390E-4	1.668293178E-3	1.951397962E-3
3.96	-3.678646727E-4	1.911710042E-3	2.952017902E-3
3.97	2.948785636E-4	1.928875589E-3	2.047156733E-3
3.98	1.036545405E-3	1.173964906E-3	2.377249613E-3
3.99	9.978401031E-4	1.798089003E-3	1.581407673E-3
4.0	-8.836930967E-5	1.523284898E-3	1.616568423E-3
4.01	-3.127214597E-4	1.338415366E-3	1.209044101E-3
4.0200000000000005	2.164710409E-4	1.326292226E-3	1.528341583E-3
4.03	2.375073304E-4	1.443110755E-3	1.084897660E-3
4.04	9.464041229E-5	1.799697781E-3	1.126879002E-3
4.05	-7.171169924E-5	1.788988894E-3	2.032731143E-3
4.0600000000000005	-9.438697013E-4	8.167742927E-4	2.092285665E-3
4.07	-9.715742146E-4	6.661004431E-4	2.188543102E-3
4.08	-1.979737035E-4	1.332705904E-3	1.337283274E-3
4.09	-1.824238545E-4	4.727999369E-4	2.048465745E-3
4.1	1.029213130E-3	1.313586991E-3	1.392002922E-3
4.11	2.129388169E-3	3.836172092E-4	1.328861574E-3
4.12	2.204438961E-3	8.167740093E-4	1.797652186E-3
4.13	1.234785238E-3	3.532324172E-4	9.206074625E-4
4.14	2.683010826E-3	-7.410006133E-4	2.207637492E-3
4.15	7.565172857E-4	3.087535868E-4	2.548967458E-3
4.16	1.821009162E-4	1.229609953E-3	1.010213710E-3
4.17	9.180532372E-4	6.487222687E-4	9.481496124E-4
4.18	-2.200453219E-4	-1.070035146E-4	1.785814342E-3
4.19	-1.067773474E-3	-7.118981228E-4	1.569760835E-3
4.2	-3.684793946E-4	-1.028087264E-3	1.535585899E-3
4.21	-6.604654736E-4	-4.964386211E-4	2.130219550E-3
4.22	5.703626550E-5	-4.228351491E-4	1.415355431E-3
4.23	8.885074168E-4	-6.702339113E-4	1.244692541E-3
4.24	3.586461405E-4	-5.059795923E-4	1.020828502E-3
4.25	3.057124021E-4	5.478335990E-5	2.853872465E-3
4.26	1.509639392E-3	-3.784356453E-4	6.707447916E-4
4.2700000000000005	-8.344541601E-4	-5.711561881E-4	1.518218895E-3
4.28	-1.227660275E-3	-9.083940716E-4	2.405481398E-3
4.29	-1.011494826E-3	-1.558306284E-3	1.791790288E-3
4.3	-4.814441345E-4	-5.381165918E-4	7.536069210E-4
4.3100000000000005	3.102021644E-4	-1.934395279E-3	1.266257345E-3
4.32	2.695507514E-4	-1.829958308E-3	2.040969579E-3
4.33	8.021947275E-4	-1.926994226E-3	1.856373259E-3
4.34	1.395784858E-3	-2.119768512E-3	1.796058449E-3
4.3500000000000005	6.466058245E-4	-2.019218888E-3	1.840984401E-3
4.36	-2.650104424E-4	-2.318146887E-3	1.209986171E-3
4.37	-5.364683009E-4	-1.620049526E-3	1.138730373E-3
4.38	-5.742131486E-4	-1.797536402E-3	8.669256664E-4
4.39	-4.609510029E-4	-1.982046530E-3	1.679418999E-3
4.4	1.441748189E-4	-3.485831578E-3	2.758961008E-3
4.41	-3.836954439E-4	-2.144398778E-3	1.635100260E-3
4.42	-5.643201877E-4	-1.696061596E-3	2.137530189E-3
4.43	7.783698357E-5	-1.511570721E-3	2.206093861E-3
4.44	1.131781608E-3	-1.376360428E-3	2.593008453E-3
4.45	1.680093795E-4	-1.772377001E-3	1.955304654E-3
4.46	6.674293004E-5	-5.551048326E-4	1.281766691E-3
4.47	5.891705742E-5	6.064332992E-4	1.127440245E-3
4.48	-8.399958490E-4	6.557365531E-4	1.710911180E-3
4.49	-9.622905823E-4	-2.911027108E-4	1.803914553E-3
4.5	-1.362866683E-4	-9.673360062E-4	1.023737189E-3
4.51	-4.602082185E-4	-4.541746782E-4	1.021806435E-3
4.5200000000000005	-3.532426012E-4	-4.123513013E-4	2.156883943E-3
4.53	-6.572544376E-4	4.585679495E-4	2.028921294E-3
4.54	-1.036385310E-3	1.439430219E-4	2.022278310E-3
4.55	-4.460704041E-4	-1.688363246E-3	9.260057376E-4
4.5600000000000005	-1.076956871E-3	2.657782979E-4	1.664644156E-3
4.57	-8.093506630E-4	-1.209607178E-4	1.401064605E-3
4.58	-6.822581940E-4	9.913927094E-4	1.559878057E-3
4.59	1.436689089E-4	1.034135639E-3	8.293091548E-4
4.6000000000000005	3.247786373E-4	8.325481840E-4	6.616119468E-4
4.61	-5.611048721E-4	1.008264157E-3	1.437376879E-3
4.62	-6.293989181E-4	1.436364199E-3	1.394373404E-3
4.63	-5.082550702E-4	8.722426927E-4	1.519772020E-3
4.64	-2.280429032E-4	2.497068490E-4	1.868909036E-3
4.65	3.440166281E-4	1.136398985E-3	1.562355477E-3
4.66	2.408291683E-4	2.336058188E-3	1.002245698E-3
4.67	3.189909185E-4	1.710982463E-3	7.072368888E-4
4.68	1.024960488E-3	2.798809278E-3	1.710663517E-3
4.69	-2.816614825E-4	1.011548921E-3	2.078181067E-3
4.7	-7.292431283E-6	1.205905436E-3	1.371854309E-3
4.71	2.282624637E-4	2.009062115E-3	2.234579936E-3
4.72	8.943176178E-4	2.290482622E-3	1.587049978E-3
4.73	-8.611634830E-4	1.499502018E-3	1.609253760E-3
4.74	-9.028942587E-4	1.744612367E-3	1.651767542E-3
4.75	-2.144945124E-4	1.888165668E-3	1.578789374E-3
4.76	2.368340905E-4	1.283656902E-3	1.181006307E-3
4.7700000000000005	4.996777115E-5	4.874034992E-4	1.310231907E-3
4.78	-4.138468500E-4	5.931943073E-4	1.372980342E-3
4.79	-1.209693684E-4	7.505707503E-4	8.644690425E-4
4.8	6.956755647E-4	5.554865353E-4	1.377572463E-3
4.8100000000000005	1.135518551E-3	1.676873162E-3	1.391746785E-3
4.82	-6.120033741E-4	1.722173993E-3	1.533797507E-3
4.83	1.993910242E-4	6.749197046E-4	1.614790687E-3
4.84	1.054792724E-4	5.547647864E-5	9.213832656E-4
4.8500000000000005	-3.620315418E-4	1.431026054E-4	1.585769787E-3
4.86	3.067930733E-4	4.987999983E-4	1.545073405E-3
4.87	2.559921289E-4	3.722011703E-4	5.806841701E-4
4.88	-2.745711549E-4	3.561289019E-4	1.581586031E-3
4.89	-4.344585385E-4	-1.974011226E-4	2.027445595E-3
4.9	2.360914764E-4	-8.074219938E-5	1.321606129E-3
4.91	7.015475409E-5	-6.270251889E-4	5.560604068E-4
4.92	9.670282449E-5	-1.051916098E-3	8.401664845E-4
4.93	7.913231932E-4	-2.841063517E-4	1.232411668E-3
4.94	7.025895955E-4	-1.415537855E-4	9.148950876E-4
4.95	9.438271644E-4	-3.590850371E-4	1.200805332E-3
4.96	7.536714439E-4	-3.580712670E-4	1.333413860E-3
4.97	3.887115839E-4	-1.122559361E-3	1.862856306E-3
4.98	5.949637460E-4	-4.932638939E-4	1.067413400E-3
4.99	-8.864770139E-4	-4.856958799E-4	1.387049571E-3
5.0	-4.147557509E-4	-2.268537792E-4	2.487705961E-3
5.01	1.249860452E-4	-1.528829271E-3	1.481440231E-3
5.0200000000000005	3.918155883E-4	-1.328134418E-3	2.169043317E-3
5.03	1.473440955E-4	-1.215850247E-3	1.061654641E-3
5.04	7.016620073E-5	-1.739886355E-3	8.945711065E-4
5.05	-7.435003082E-5	-1.693597811E-3	1.852904916E-3
5.0600000000000005	3.499313924E-4	-1.856956619E-3	1.527705466E-3
5.07	7.275981077E-4	-2.159803548E-3	6.372692181E-4
5.08	2.192022853E-4	-2.032730505E-3	5.192971152E-4
5.09	-2.393941794E-4	-1.866293525E-3	4.679870676E-4
5.1000000000000005	3.246350440E-4	-1.863432359E-3	1.103215827E-3
5.11	2.884535083E-5	-2.360336558E-3	1.065342958E-3
5.12	1.407321270E-4	-1.402401742E-3	1.715864504E-4
5.13	4.352419768E-5	-1.673472352E-3	3.365080953E-4
5.14	-2.687732185E-4	-2.517894218E-3	8.192318827E-4
5.15	-8.206172712E-5	-1.653656355E-3	1.421851679E-3
5.16	8.099336884E-5	-2.052932236E-3	2.064014449E-3
5.17	-2.456608423E-4	-9.013273812E-4	1.346173026E-3
5.18	-8.268934935E-4	-1.360597497E-3	8.043265774E-4
5.19	-1.504185746E-4	-1.454910628E-3	1.026324450E-3
5.2	8.066715759E-6	-9.095379244E-4	7.763026010E-4
5.21	1.430827181E-4	-8.562720829E-4	1.683496690E-3
5.22	1.135521346E-4	-8.387187816E-4	2.337047518E-3
5.23	4.252360438E-5	-6.157032381E-4	1.355202032E-3
5.24	3.858319433E-4	-8.752271125E-4	7.190120265E-4
5.25	-8.694069750E-4	-4.066010748E-4	2.827025715E-4
5.26	-1.993287400E-4	-2.990654489E-4	2.390888214E-4
5.2700000000000005	-6.123233411E-4	-9.983494827E-5	5.454929554E-4
5.28	5.915052410E-4	-2.147899267E-4	3.406578831E-4
5.29	-9.256028183E-5	8.987022561E-5	1.277226359E-4
5.3	6.226092709E-5	6.341645576E-4	1.506614554E-3
5.3100000000000005	-7.486337546E-4	-1.612799484E-4	7.893530146E-4
5.32	-6.890083424E-4	-1.261658391E-4	7.000177941E-4
5.33	-3.833927985E-4	-3.901221643E-5	9.502895023E-4
5.34	6.766104051E-4	5.058495756E-4	1.673491900E-3
5.3500000000000005	7.410898033E-4	1.001722279E-3	1.855848200E-3
5.36	1.336780012E-4	1.252725336E-3	1.386022672E-3
5.37	-1.621062528E-4	1.285084111E-3	7.988458135E-4
5.38	-3.766286253E-4	1.442755818E-3	7.526482403E-4
5.39	-5.270306385E-4	1.653747244E-3	1.371971016E-3
5.4	-1.084701455E-4	2.070014787E-4	1.182565471E-3
5.41	-7.802802123E-4	1.649080929E-3	7.787182661E-4
5.42	-1.307670158E-3	1.514365184E-3	8.429875150E-4
5.43	9.375345827E-5	2.311235227E-3	9.878696672E-4
5.44	6.792388460E-4	2.041665494E-3	9.206179673E-4
5.45	5.051607380E-4	2.623802369E-3	1.439164661E-3
5.46	4.063820214E-4	1.843169006E-3	1.385044365E-3
5.47	8.797334443E-4	1.971133018E-3	1.327137443E-3
5.48	5.104846138E-4	2.059366461E-3	1.558155664E-3
5.49	-1.914738811E-4	1.787977934E-3	6.855648547E-4
5.5	2.320946266E-4	1.483676909E-3	-1.977078762E-4
5.51	7.025983131E-4	1.961690963E-3	5.182884391E-4
5.5200000000000005	1.222844167E-5	2.481736909E-3	1.000843173E-3
5.53	-1.352729599E-4	1.523588519E-3	3.867551760E-4
5.54	-5.419657284E-4	7.449696358E-4	-2.012753059E-5
5.55	1.173012339E-4	1.138066685E-3	9.896772594E-6
5.5600000000000005	-2.058693592E-4	7.615431102E-4	3.290645064E-4
5.57	-3.856102432E-4	7.114051096E-4	2.053667918E-3
5.58	-1.694712792E-7	-9.482399128E-6	9.746922185E-4
5.59	1.872993376E-4	3.741418113E-4	3.941565668E-4
5.6000000000000005	6.059923686E-4	4.045453541E-4	1.254372208E-3
5.61	9.217330275E-4	4.622632670E-4	1.000710506E-3
5.62	3.843318457E-4	5.773790126E-5	9.475790963E-4
5.63	-3.912717362E-4	1.483771809E-4	8.507242240E-4
5.64	-2.753125377E-4	3.441593976E-4	7.901880027E-4
5.65	-1.771933757E-5	2.586287546E-4	4.017174880E-4
5.66	-3.461488470E-4	3.188118306E-5	2.045335054E-4
5.67	-6.946135402E-4	1.660715261E-5	1.043753082E-3
5.68	-1.170076898E-3	3.334034252E-4	1.103681329E-3
5.69	-3.438099051E-4	-9.259410594E-4	7.538179356E-4
5.7	-2.941245834E-4	-4.439596959E-4	6.188068198E-4
5.71	8.864591563E-4	-5.455871019E-4	8.292626906E-4
5.72	1.324949359E-4	3.336707127E-5	9.465474039E-4
5.73	9.122469937E-4	-2.262814684E-4	2.339973415E-3
5.74	-3.713295095E-4	-1.033522899E-3	6.168027342E-4
5.75	-1.081146957E-5	-1.063265131E-3	9.549713327E-4
5.76	5.967990770E-4	-7.138132353E-4	1.248202216E-3
5.7700000000000005	2.413481503E-4	-6.999155743E-4	1.309263398E-3
5.78	4.809675123E-5	-9.498296708E-4	5.779299271E-4
5.79	5.889070961E-4	-1.105444663E-3	7.967535918E-4
5.8	5.427549070E-4	-1.410714177E-3	1.017179428E-3
5.8100000000000005	2.172615289E-4	-1.979225515E-3	7.771993177E-4
5.82	1.105172459E-3	-1.909545464E-3	1.486736898E-3
5.83	5.485969181E-4	-8.463775931E-4	8.347397111E-4
5.84	-5.586009580E-4	-1.624669205E-3	6.264036394E-4
5.8500000000000005	-6.021651054E-5	-1.493953738E-3	3.422538455E-4
5.86	3.336349118E-4	-2.833278258E-3	2.124473887E-3
5.87	-5.951975132E-4	-1.927146786E-3	8.068491947E-4
5.88	1.158511878E-4	-2.512409514E-3	1.013166936E-3
5.89	-1.733323454E-4	-1.623257409E-3	9.711929438E-4
5.9	-1.899147092E-3	-1.365684932E-3	1.506084497E-3
5.91	-1.973075615E-3	-1.547715858E-3	1.585466921E-3
5.92	-9.177681858E-4	-1.957385317E-3	5.155823051E-4
5.93	2.145788253E-4	-1.689687884E-3	5.879050324E-4
5.94	7.695454778E-4	-1.405662612E-3	8.092571126E-4
5.95	1.060542682E-3	-7.916554702E-4	8.673242452E-4
5.96	1.573447271E-3	-7.504384971E-6	1.011956378E-3
5.97	1.963668814E-3	-5.024690560E-5	4.468225496E-4
5.98	1.939475431E-3	4.831449538E-4	1.004766301E-4
5.99	1.226419450E-3	-6.633281121E-4	-2.888007290E-4
6.0	-5.336970496E-4	6.935288054E-5	1.648519979E-3
6.01	-1.479701771E-3	-4.259083749E-4	8.289389514E-4
6.0200000000000005	-2.212068253E-3	2.575328849E-4	6.036744214E-4
6.03	-2.510026586E-3	-2.102004413E-4	7.031625836E-4
6.04	-1.280128208E-3	-7.769701124E-4	8.737145058E-4
6.05	3.949047968E-4	-6.377175606E-4	1.338026661E-3
6.0600000000000005	1.373817574E-3	-1.193665173E-4	1.574755184E-3
6.07	2.103788658E-3	3.727231706E-4	9.402271861E-4
6.08	2.351247680E-3	5.967254739E-5	7.495871180E-4
6.09	1.914047436E-3	2.338196267E-4	2.711391143E-4
6.1000000000000005	1.265894645E-3	4.737103879E-4	9.048083068E-4
6.11	-1.602510168E-4	8.565031377E-4	-9.562488692E-4
6.12	-7.562326694E-4	2.059819568E-3	7.568615824E-4
6.13	-8.239672620E-4	7.720594774E-4	1.355248641E-3
6.140000000000001	-8.873978189E-4	1.337307394E-3	6.660009771E-4
6.15	4.370579368E-4	8.941489261E-4	8.195035290E-4
6.16	1.918169673E-4	1.785024558E-3	5.235164261E-5
6.17	-3.429563590E-5	1.735493892E-3	4.215753909E-4
6.18	1.131447799E-3	2.349929912E-3	5.526268937E-4
6.19	1.523168794E-3	2.325701284E-3	9.272228975E-4
6.2	1.107969922E-3	1.313614266E-3	1.048293010E-3
6.21	4.345954022E-4	1.005418649E-3	6.897958851E-4
6.22	-5.324724172E-4	1.660217099E-3	1.156026342E-3
6.23	-4.081531287E-4	2.854740077E-3	1.783074237E-4
6.24	-7.229491505E-4	3.385545697E-3	1.811053128E-4
6.25	3.385371916E-5	1.159599815E-3	8.652390541E-5
6.26	-1.499040736E-3	1.003971853E-3	4.848865194E-4
6.2700000000000005	-1.511297660E-3	1.525567146E-3	8.389252000E-4
6.28	-7.218363276E-4	2.360754302E-3	9.423318380E-4
6.29	3.372494798E-5	1.568305484E-3	9.698351919E-4
6.3	1.113743375E-4	7.504240677E-4	2.673974026E-5
6.3100000000000005	7.750510296E-4	5.544534783E-4	1.085008235E-3
6.32	1.137599605E-3	6.350363263E-4	6.839188204E-4
6.33	1.065413559E-3	5.171341080E-4	-9.108719997E-5
6.34	5.521282515E-4	3.004146713E-4	5.052131288E-4
6.3500000000000005	-7.392558633E-4	3.101961108E-4	9.872213217E-5
6.36	-1.759278453E-3	4.778974228E-4	7.960000724E-4
6.37	-2.319629633E-3	3.681863949E-5	1.014547241E-4
6.38	-1.958597494E-3	4.657069458E-4	1.067269609E-3
6.390000000000001	-7.503411799E-4	4.170835063E-4	1.066473038E-3
6.4	8.907218627E-4	-7.381648480E-5	4.678010422E-4
6.41	1.805370116E-3	-5.835012593E-4	5.459166828E-4
6.42	1.674206899E-3	-7.713649807E-4	4.891196442E-4
6.43	1.929302122E-3	1.748554112E-4	4.237925882E-4
6.44	1.851531850E-3	4.139004754E-4	7.361003584E-4
6.45	5.253840225E-4	-3.102209307E-4	1.210017852E-3
6.46	-5.549560811E-4	-4.636787489E-4	9.608460435E-4
6.47	-1.026981414E-3	-5.923563070E-4	7.329859506E-4
6.48	-9.969923085E-4	-1.324837713E-3	8.512300092E-4
6.49	-7.634086774E-4	-1.372339903E-3	7.460903608E-4
6.5	-8.032360396E-4	-2.790505304E-4	4.231869729E-4
6.51	2.738831767E-4	-9.016497640E-4	6.709274156E-4
6.5200000000000005	1.199833427E-4	-9.977564756E-4	1.465851229E-6
6.53	1.194420131E-3	-2.499829361E-3	4.607973702E-4
6.54	1.701902534E-3	-1.977177895E-3	-6.901224136E-4
6.55	2.866809761E-4	-2.240166841E-3	3.163594157E-4
6.5600000000000005	-5.535474107E-4	-1.759575182E-3	8.429592993E-4
6.57	6.682000239E-4	-2.076683560E-3	5.444533725E-4
6.58	1.695747690E-5	-2.274368429E-3	6.111476191E-4
6.59	-6.097401755E-4	-2.453066097E-3	7.261709045E-4
6.6000000000000005	-8.283655824E-4	-2.358499421E-3	4.821742597E-4
6.61	-1.101156134E-3	-2.052223189E-3	5.002053570E-4
6.62	-1.044730447E-3	-1.802866490E-3	3.513591669E-4
6.63	4.343805214E-4	-1.686774628E-3	1.837359664E-5
6.640000000000001	1.941384879E-3	-1.844622568E-3	7.976660328E-4
6.65	1.813935847E-3	-2.179924343E-3	9.252706997E-4
6.66	1.983645865E-3	-1.839514363E-3	1.678164303E-4
6.67	1.216227100E-3	-1.350785403E-3	4.597922049E-4
6.68	1.419617752E-3	-1.220236886E-3	3.670948893E-4
6.69	-2.221912687E-3	-9.017239545E-4	8.170896663E-4
6.7	-1.847234778E-3	-4.537481626E-4	3.398681981E-4
6.71	-3.053729551E-3	3.813797749E-5	-6.557748553E-4
6.72	-2.404161899E-3	4.144884349E-4	-8.301210736E-5
6.73	-1.638083131E-3	2.122590051E-4	5.068649978E-4
6.74	-8.248875042E-4	-2.400479739E-4	7.282662058E-4
6.75	7.545453507E-4	-2.794840487E-4	8.296240254E-4
6.76	2.443159779E-3	1.095768686E-4	7.831551940E-4
6.7700000000000005	2.940606361E-3	-2.291519450E-4	5.044251287E-4
6.78	2.597592297E-3	-1.290327124E-3	4.148295889E-4
6.79	2.485728564E-3	-2.765465100E-4	6.277006258E-4
6.8	-8.502922303E-5	-9.348947163E-7	3.794542913E-4
6.8100000000000005	-2.524291200E-3	-4.351622851E-4	1.040355033E-3
6.82	-1.765883488E-3	-3.770044259E-5	-6.178564003E-4
6.83	-2.872707924E-3	2.565067447E-4	-1.274273977E-3
6.84	-2.443722589E-3	-4.754515815E-6	3.924893329E-4
6.8500000000000005	-1.832969813E-3	-2.995904764E-5	7.405465248E-4
6.86	3.025165302E-4	1.023437164E-4	4.634967463E-4
6.87	1.191949538E-3	6.667684250E-4	2.083009386E-4
6.88	2.245394992E-3	1.910688035E-3	3.895377129E-4
6.890000000000001	2.295251833E-3	2.005293035E-3	3.621960235E-4
6.9	1.226240987E-3	2.003727962E-3	2.035102578E-4
6.91	8.717221428E-5	1.700543646E-3	-5.031799753E-5
6.92	-8.631123513E-4	1.136521081E-3	-3.519236263E-4
6.93	-1.487436590E-3	1.872267727E-3	-1.033029771E-4
6.94	-2.220794582E-3	2.204849333E-3	4.968389402E-4
6.95	-1.940663117E-3	2.337143956E-3	-5.135488998E-4
6.96	1.430414751E-4	2.897202137E-3	5.842417208E-4
6.97	-7.588385657E-5	1.257210314E-3	6.318287197E-4
6.98	7.320029234E-4	2.570263315E-3	1.909512431E-4
6.99	1.410153092E-3	2.804108006E-3	-3.557233540E-4
7.0	1.933179804E-3	1.991135293E-3	1.132446412E-3
7.01	1.917727607E-3	1.486015755E-3	-1.461235903E-4
7.0200000000000005	1.363105908E-3	1.083957052E-3	-1.183272832E-4
7.03	1.487407004E-4	1.435504364E-3	1.192966888E-4
7.04	-1.542177559E-3	1.479091117E-3	-1.436426293E-4
7.05	-2.583249164E-3	7.214717406E-4	1.809602258E-4
7.0600000000000005	-1.745273738E-3	5.308777117E-4	1.143347230E-3
7.07	-1.027417296E-3	4.019488043E-4	1.957536604E-3
7.08	-1.012918067E-3	4.170786771E-4	1.521871966E-3
7.09	8.074128351E-4	6.455461688E-4	1.623984294E-4
7.1000000000000005	1.001857124E-3	-8.912289281E-5	4.242633659E-4
7.11	1.527835200E-3	7.358977568E-5	8.604306132E-4
7.12	1.942305262E-3	1.074569151E-4	-3.225174520E-5
7.13	1.887518961E-4	-3.195148211E-4	4.506011112E-4
7.140000000000001	6.308014448E-4	4.638569256E-5	2.437759716E-4
7.15	-4.102216703E-4	-1.859283096E-4	8.729639025E-4
7.16	-1.450088488E-3	-8.548657331E-5	1.036578024E-3
7.17	-2.122431856E-3	2.036143872E-4	5.990313106E-4
7.18	-1.575836103E-3	-2.289947625E-4	4.493490093E-4
7.19	-9.485584893E-4	-4.927460206E-4	5.376891616E-4
7.2	-5.581441629E-4	-2.374513340E-4	7.100215091E-4
7.21	8.109327101E-4	-5.194474999E-4	9.939615919E-4
7.22	2.006484372E-3	-3.769092411E-4	1.434613162E-4
7.23	3.219205773E-3	-1.024893156E-3	9.976196834E-4
7.24	3.340435327E-3	-1.337971763E-3	-2.578583644E-4
7.25	9.883539633E-5	-1.714236940E-3	1.510222583E-3
7.26	8.748374335E-5	-1.545848353E-3	-4.555445760E-4
7.2700000000000005	-2.003411839E-3	-1.593423738E-3	5.798288456E-4
7.28	-1.920861401E-3	-1.994276321E-3	3.246063453E-4
7.29	-2.270335381E-3	-1.014759392E-3	1.810443835E-4
7.3	-1.297676344E-3	-1.505535175E-3	-2.383627327E-4
7.3100000000000005	-8.443693188E-4	-2.278260844E-3	-4.597410830E-4
7.32	-2.650323575E-4	-2.226820207E-3	-6.462019628E-4
7.33	1.092240866E-3	-2.102366407E-3	4.951990868E-4
7.34	1.665835794E-3	-1.938880851E-3	7.530614302E-4
7.3500000000000005	1.358437367E-3	-1.688198443E-3	-4.298318693E-4
7.36	1.280208357E-3	-1.506796937E-3	1.086661023E-4
7.37	4.035044766E-4	-1.493471296E-3	2.220749643E-4
7.38	3.486506609E-4	-2.667792714E-3	3.766215022E-4
7.390000000000001	-1.752666389E-3	-7.198479711E-4	1.433305323E-4
7.4	-2.553995550E-3	-1.065942236E-3	1.065402640E-3
7.41	-2.396740993E-3	-1.143622473E-3	-3.271800130E-4
7.42	-1.341212559E-3	-1.067018072E-3	-2.126738474E-4
7.43	-7.804135818E-4	-3.525576065E-4	1.271235624E-3
7.44	3.590952559E-4	-2.247069725E-4	1.119043115E-3
7.45	1.330837886E-3	-4.791459730E-4	7.295536386E-4
7.46	1.480293941E-3	-5.310183461E-5	3.392129500E-5
7.47	9.332898711E-4	3.357344624E-6	-5.394142725E-5
7.48	-2.564105445E-4	-2.947410113E-4	5.919612560E-4
7.49	-8.673150961E-4	-2.446601270E-4	3.892676259E-4
7.5	-5.215632370E-4	-8.606490176E-4	2.271686839E-4
7.51	-8.185181633E-4	-4.196909374E-4	2.216849809E-4
7.5200000000000005	-1.415884024E-3	-5.431647716E-4	1.373825810E-4
7.53	-9.391399194E-4	-1.490266033E-3	-5.389634281E-4
7.54	-3.022918905E-4	1.549925841E-4	-3.961306661E-4
7.55	8.064552363E-4	1.428970987E-4	3.772275954E-4
7.5600000000000005	1.124989936E-3	5.261162752E-6	7.767682977E-4
7.57	1.425909106E-3	5.738026289E-4	-4.668276515E-4
7.58	2.350225926E-3	8.614478533E-4	3.850366981E-4
7.59	1.157125653E-3	3.859517502E-4	8.631743756E-5
7.6000000000000005	2.706577851E-4	4.986453655E-4	1.527550009E-4
7.61	-2.773381557E-4	5.839223080E-4	7.907885415E-4
7.62	-1.185302574E-3	9.846112454E-4	6.667938132E-4
7.63	-2.053055570E-3	1.598886624E-3	1.578230472E-4
7.640000000000001	-2.051101145E-3	1.338137383E-3	4.935678002E-4
7.65	-8.108295903E-4	1.801470512E-3	-1.762068676E-4
7.66	2.828381333E-4	2.221289706E-3	-2.780266595E-4
7.67	7.465448915E-4	1.882578031E-3	8.137456970E-4
7.68	1.154151528E-3	1.730598209E-3	6.151380284E-4
7.69	1.992311100E-3	2.291578073E-3	9.235638529E-4
7.7	2.095525239E-3	1.621491352E-3	1.978228117E-4
7.71	7.001220449E-4	2.308797484E-3	-1.091851137E-3
7.72	-5.422905918E-4	1.551658960E-3	-1.565824943E-4
7.73	-1.010727956E-3	1.458397068E-3	3.403885288E-4
7.74	-1.835824881E-3	9.347738489E-4	1.373198660E-4
7.75	-1.377829540E-3	2.282483664E-4	-1.007817388E-4
7.76	-1.539632212E-3	3.265563445E-4	-2.456396917E-6
7.7700000000000005	-1.643798637E-3	4.152321405E-4	5.348001398E-4
7.78	-1.411176740E-4	2.281345790E-4	2.392090243E-4
7.79	1.124599145E-3	5.566653536E-4	-1.212405572E-3
7.8	1.865259711E-3	1.630473732E-3	-4.281284273E-4
7.8100000000000005	1.189984995E-3	2.068513836E-3	1.126567105E-3
7.82	2.251042067E-3	-2.118956635E-4	4.405696682E-4
7.83	-2.749726725E-5	7.813149660E-4	7.034860086E-4
7.84	5.883505141E-4	1.169176418E-3	-5.224925130E-4
7.8500000000000005	-1.699298590E-3	2.184756287E-4	9.588896053E-5
7.86	-1.313232407E-3	-9.282139423E-4	-1.830212599E-4
7.87	-1.162162244E-3	3.003268831E-4	4.970979078E-4
7.88	-1.787522971E-3	1.118325832E-3	-1.774883299E-5
7.890000000000001	-1.453126358E-3	3.590674866E-4	-3.557561303E-4
7.9	4.808786687E-5	-2.541082286E-4	-2.068635782E-4
7.91	1.575327703E-3	-1.311216549E-5	-8.503217934E-5
7.92	2.639309209E-3	-6.024039702E-5	4.435270038E-4
7.930000000000001	2.912589195E-3	1.134794908E-4	6.262560890E-4
7.94	1.790176514E-3	2.577456885E-4	2.772984412E-4
7.95	5.768810243E-4	-5.349453396E-4	-5.242860874E-4
7.96	-6.503257126E-4	-1.488797505E-3	-4.147275289E-4
7.97	-1.613357147E-3	-8.237571270E-4	3.269452006E-4
7.98	-7.231339411E-4	-1.430141215E-3	-2.544185014E-4
7.99	-1.311482799E-3	-1.508146539E-3	3.397680209E-4
8.0	-7.873721731E-4	-1.260266154E-3	6.158032338E-4
8.01	-5.237805892E-4	-1.316343651E-3	1.248358764E-3
8.02	8.405887912E-4	-1.534079140E-3	3.738570884E-4
8.03	1.303579422E-3	-1.434552072E-3	1.042382475E-4
8.040000000000001	1.211625830E-3	-1.462187446E-3	4.355475968E-4
8.05	9.335396480E-4	-1.459017520E-3	7.329614880E-4
8.06	6.720558428E-5	-1.203295409E-3	4.341327914E-4
8.07	-5.278886498E-4	-1.518968452E-3	-2.620950694E-4
8.08	1.033029504E-4	-2.605571785E-3	6.233869171E-4
8.09	-1.093233468E-3	-1.487209118E-3	5.607874689E-4
8.1	-2.247479425E-3	-2.309572393E-3	-4.410259619E-4
8.11	-2.319845736E-4	-3.244729926E-3	-1.142671898E-3
8.120000000000001	-1.998203302E-4	-1.767072575E-3	9.120243937E-4
8.13	6.097671431E-4	-7.784729614E-4	5.008139631E-4
8.14	9.538487353E-4	-1.768462650E-3	-3.304460474E-5
8.15	1.315660667E-3	-1.501332830E-3	-1.949218835E-4
8.16	1.677777840E-3	-1.281993726E-3	9.129500274E-4
8.17	8.500913294E-4	-7.847088136E-4	3.622391333E-4
8.18	-4.003487253E-4	-7.060228145E-4	2.465339012E-4
8.19	-4.556194032E-4	-8.936318819E-4	6.888506536E-4
8.2	-9.646359800E-4	-9.322950550E-4	9.833559976E-4
8.21	-1.644764377E-3	-8.859009272E-4	9.071744375E-4
8.22	-5.413999236E-4	-5.640315457E-4	3.777895323E-4
8.23	-6.296920433E-4	7.413582959E-5	1.548664669E-3
8.24	-4.748908901E-4	-6.186461593E-4	8.634781418E-4
8.25	-2.411581126E-4	3.001029263E-4	-5.683505719E-4
8.26	8.827421685E-4	-8.884183470E-5	-2.968993221E-4
8.27	1.999972532E-3	-2.912865766E-4	7.578152567E-4
8.28	1.013791568E-3	-8.081646529E-4	1.610187590E-3
8.290000000000001	-7.466551858E-4	-6.139059460E-4	9.413336412E-5
8.3	-1.104197688E-3	-1.409532542E-4	-1.476256158E-4
8.31	-1.876494328E-3	8.162700588E-5	-4.811410946E-4
8.32	-2.082084692E-3	2.313937808E-4	-2.016588304E-4
8.33	-2.068296805E-3	2.963883513E-4	-2.518118172E-4
8.34	-1.182672917E-3	4.211996768E-4	3.907521228E-4
8.35	1.692409174E-4	5.954749112E-4	1.049430792E-3
8.36	6.934820500E-4	6.068648667E-4	5.376048693E-4
8.370000000000001	8.407846490E-4	6.027100623E-4	3.868534898E-4
8.38	1.471444323E-3	1.016612450E-3	9.257708422E-4
8.39	1.054187833E-3	1.409152538E-3	-4.743209414E-4
8.4	1.639092666E-4	1.154727053E-3	5.479517545E-4
8.41	-9.513671280E-5	1.760684389E-3	1.073306010E-3
8.42	-1.234895258E-3	1.733254847E-3	1.337226547E-3
8.43	-9.431778495E-4	1.467963812E-3	3.398200300E-4
8.44	-8.784030060E-4	1.365148230E-3	-2.984337370E-4
8.45	-1.428140032E-3	1.648834540E-3	2.117098269E-4
8.46	-1.922795196E-3	1.871408549E-3	-1.140330434E-4
8.47	-1.032373262E-3	1.847395663E-3	-1.049606806E-4
8.48	4.438781019E-4	1.940907833E-3	6.863597647E-4
8.49	1.380975488E-3	1.666562647E-3	4.508496472E-4
8.5	1.276221249E-3	1.304126681E-3	-9.821405649E-4
8.51	5.011559856E-4	1.658917889E-3	-1.268962438E-3
8.52	4.361118475E-4	1.272209035E-3	-5.662936846E-4
8.53	2.583291906E-4	1.089577616E-3	7.005359527E-4
8.540000000000001	-7.200614455E-4	7.350658849E-4	5.884089930E-4
8.55	-1.591330251E-3	1.177795622E-3	1.829554454E-3
8.56	-1.197018965E-3	1.843576499E-4	-8.717918815E-5
8.57	-4.345246545E-4	9.174886777E-4	-4.966800839E-4
8.58	5.827024378E-5	1.324403090E-3	-6.683977196E-4
8.59	5.494613591E-6	4.602198291E-4	8.432074107E-6
8.6	6.276406504E-4	-1.835579522E-4	3.809444669E-4
8.61	8.478685751E-4	-2.462899398E-4	-1.057708597E-6
8.620000000000001	1.191081598E-3	-8.660401294E-5	-4.401164621E-4
8.63	1.397207847E-3	4.872291530E-4	-5.268667240E-4
8.64	1.066432925E-3	6.100152645E-4	-1.796328382E-4
8.65	5.859671495E-4	-5.515041236E-4	5.265830185E-4
8.66	-1.463001786E-3	-1.156026726E-5	1.108143417E-3
8.67	-1.228287324E-3	-5.589142839E-4	4.745098050E-4
8.68	-8.326829097E-4	-1.945879243E-3	1.636609106E-4
8.69	-3.553156412E-4	2.149186527E-4	-4.858063431E-4
8.700000000000001	4.165390653E-6	-3.611974232E-4	-4.573565572E-4
8.71	5.105607025E-4	-5.756896201E-4	-2.179053750E-4
8.72	2.543932060E-4	-2.147938059E-4	-1.146694238E-3
8.73	4.685402151E-4	-1.590705674E-3	2.140264398E-4
8.74	-8.580886359E-6	-2.406155054E-3	2.970203192E-4
8.75	6.744226476E-4	-2.054817880E-3	-6.398866434E-4
8.76	4.718508084E-4	-1.749684903E-3	-1.555563908E-3
8.77	-3.309427747E-4	-1.308397992E-3	-5.164015717E-4
8.78	-7.845562557E-4	-1.356125945E-3	6.005511768E-4
8.790000000000001	-9.003333697E-4	-1.976475811E-3	1.305669779E-4
8.8	-4.305386162E-4	-1.805225470E-3	4.113112815E-5
8.81	-3.657409247E-4	-1.503653168E-3	3.200744700E-5
8.82	-2.759181052E-4	-2.243418896E-3	-6.962879571E-4
8.83	1.521829916E-3	-1.883638762E-3	-3.478430050E-4
8.84	1.046412772E-3	-1.334082821E-3	-3.187440359E-4
8.85	1.457924912E-3	-2.022773323E-3	-2.162276207E-5
8.86	1.024101571E-3	-1.144645181E-3	-1.514660088E-4
8.870000000000001	3.186863678E-4	-1.463232961E-3	-2.219773869E-4
8.88	-2.458663934E-4	-1.779637588E-3	1.064547974E-3
8.89	-1.465676738E-3	-1.153508454E-3	-1.224774344E-4
8.9	-1.475879860E-3	-8.808691746E-4	-1.008303607E-3
8.91	-5.951210200E-4	-9.492611256E-4	-3.132544270E-4
8.92	1.389650934E-4	-8.576254777E-4	3.342047873E-4
8.93	3.504637482E-4	-6.926910970E-4	4.104201684E-4
8.94	2.081232818E-4	-6.334130651E-4	1.662268047E-4
8.950000000000001	8.399696203E-4	-1.238793366E-3	-9.405498709E-5
8.96	7.562448631E-4	-7.996507444E-4	1.659498066E-4
8.97	1.695276521E-3	-6.397868735E-4	-5.787094172E-4
8.98	5.462122654E-4	-1.648729481E-4	3.507870585E-4
8.99	-1.230673895E-4	-6.728808241E-4	7.483466840E-4
9.0	-7.061059594E-4	1.583457768E-4	3.678857255E-4
9.01	-9.821530151E-4	2.199046329E-4	3.452696851E-4
9.02	-1.136782838E-3	-1.242386712E-3	2.589522242E-4
9.03	-1.245799110E-3	-3.293569477E-4	-5.913718729E-4
9.040000000000001	-1.440119780E-3	-4.529422640E-4	-7.035677016E-4
9.05	-1.114804511E-3	-2.817049268E-4	-5.836522734E-4
9.06	-3.686827503E-6	7.120347553E-4	3.386179091E-5
9.07	8.739888992E-4	9.305213110E-4	1.214081902E-3
9.08	5.357972246E-4	4.286590945E-4	1.489985251E-3
9.09	1.540567819E-4	7.459997677E-4	8.926810735E-4
9.1	-5.668759518E-5	7.782509899E-4	-1.544762130E-4
9.11	5.225965478E-4	9.542317636E-4	-3.280218955E-4
9.120000000000001	1.501245376E-3	1.364776618E-3	-2.283247289E-4
9.13	-1.873704100E-4	1.461268980E-3	-2.084475607E-4
9.14	-8.831694099E-4	1.816827544E-3	-8.010554116E-4
9.15	-7.309400299E-4	1.006295270E-3	-5.356016034E-4
9.16	-6.877881829E-5	1.403621372E-3	-7.124795263E-4
9.17	1.001600521E-3	1.537916344E-3	-2.070843696E-4
9.18	7.926526808E-4	1.156123605E-3	6.957439892E-4
9.19	2.567163084E-4	1.282810107E-3	4.887721917E-4
9.200000000000001	1.907750817E-4	2.284477340E-3	-3.822549776E-4
9.21	-8.624498157E-5	2.379462286E-3	-1.501285799E-4
9.22	1.147745697E-4	1.551902469E-3	3.973055288E-4
9.23	-2.261010431E-4	1.669865611E-3	7.936862077E-4
9.24	-1.381156377E-3	1.801954748E-3	-5.698923341E-4
9.25	-1.330560311E-3	1.301055951E-3	-4.876937657E-4
9.26	-2.006007215E-3	1.433496196E-3	-5.426150411E-4
9.27	-1.973370105E-4	9.996734825E-4	-5.394030870E-4
9.28	1.004058063E-3	1.503294551E-3	-1.214890998E-3
9.290000000000001	3.373053159E-4	1.100865387E-3	-1.286672185E-4
9.3	4.308425711E-4	7.914788931E-4	-4.556366391E-4
9.31	5.185994831E-4	7.265289026E-4	1.002180259E-4
9.32	1.085685289E-3	1.308595290E-3	2.736247769E-4
9.33	9.693393021E-4	1.621402767E-3	1.345818001E-4
9.34	5.227264277E-4	9.264199296E-4	-3.337356835E-4
9.35	-1.467526274E-4	2.231627156E-4	-6.929742378E-4
9.36	-1.619498965E-3	4.878867466E-4	-5.278805144E-5
9.370000000000001	-1.735990585E-3	1.297234602E-4	4.668713236E-5
9.38	-6.468923154E-4	1.012532982E-3	-1.191521564E-3
9.39	-6.334960777E-4	-2.502019583E-4	9.775517578E-4
9.4	-6.196350867E-4	2.673582990E-4	8.178750410E-5
9.41	-4.928710366E-4	-6.379671209E-4	-2.246600240E-4
9.42	7.005449582E-4	-2.694596835E-4	1.195811625E-4
9.43	2.305592242E-4	-5.515023956E-4	-4.036965239E-4
9.44	4.487373840E-5	-1.463681647E-3	-6.002270573E-5
9.450000000000001	-1.048180788E-4	-1.193509053E-3	-1.653305422E-4
9.46	-2.225941668E-4	-8.014229717E-4	-4.246310328E-4
9.47	-2.753790675E-4	-1.264411182E-3	2.706668403E-4
9.48	-9.680644048E-4	-1.166939920E-3	1.063486485E-4
9.49	-1.303637180E-3	-1.339113956E-3	-6.349748230E-4
9.5	-7.124887026E-4	-1.911561283E-3	-8.776044335E-4
9.51	-2.340415680E-4	-1.395530320E-3	-8.752799614E-4
9.52	4.819422153E-4	-1.272665799E-3	-3.228514268E-4
9.53	-9.367030202E-6	-1.806352118E-3	-3.217849472E-4
9.540000000000001	8.830897911E-4	-1.957098345E-3	-7.540240557E-4
9.55	1.600623729E-3	-3.983690411E-4	1.763033607E-4
9.56	-8.816892708E-4	-1.858052267E-3	-6.240588277E-4
9.57	1.786765418E-4	-2.277360433E-3	-9.812281297E-4
9.58	-1.149350280E-4	-2.076319494E-3	-9.261168476E-4
9.59	-1.781541105E-4	-1.574595382E-3	-3.702498477E-4
9.6	-1.111045103E-3	-9.257529517E-4	-5.927854428E-5
9.61	-1.058566282E-3	-1.386422185E-3	5.125030062E-4
9.620000000000001	-1.770973989E-4	-1.856331976E-3	6.989369430E-4
9.63	2.496693333E-4	-1.169490713E-3	2.090981741E-4
9.64	1.894404336E-4	-8.035568558E-4	9.498462688E-6
9.65	-2.029481320E-4	-8.292027313E-4	-4.030068131E-4
9.66	-1.545352236E-4	-6.504636570E-4	-6.057706556E-4
9.67	4.169892273E-4	-5.611934783E-4	-2.555137877E-4
9.68	2.974013841E-4	-1.057988815E-4	1.213771128E-4
9.69	5.452161571E-4	-4.406325726E-4	4.571646622E-4
9.700000000000001	-5.295990599E-4	-3.068320272E-4	-4.290194617E-4
9.71	-1.129651450E-3	-9.126402127E-4	-7.423934580E-4
9.72	-1.265231242E-3	-7.969922955E-4	-2.590083310E-4
9.73	-6.128661999E-4	-7.197016210E-4	-1.258391066E-3
9.74	-3.930076117E-4	3.062825221E-4	1.628918841E-5
9.75	4.289230109E-5	-2.320073622E-4	-1.113512225E-5
9.76	5.825382175E-4	-8.035385149E-4	-3.532673335E-4
9.77	4.445056315E-4	-4.778364657E-4	-5.600337179E-4
9.78	1.634424121E-4	3.270775628E-5	-8.771478846E-4
9.790000000000001	7.901500953E-4	4.030036424E-4	-4.627262965E-4
9.8	7.449583988E-4	3.410493416E-4	-3.435779967E-4
9.81	1.696559735E-4	-9.998004492E-5	6.241663583E-4
9.82	1.528806017E-4	5.606235508E-4	-2.357155133E-5
9.83	-5.288345755E-4	5.600962198E-4	-5.347965945E-4
9.84	-4.010934157E-4	1.488048676E-3	-7.739234642E-4
9.85	-8.213808168E-5	1.593405922E-3	-4.748706513E-4
9.86	-8.709087017E-5	1.517489163E-3	-8.283971746E-6
9.870000000000001	1.675257921E-4	2.112145118E-3	2.264219649E-5
9.88	7.915899388E-4	2.224871998E-3	-1.403300498E-5
9.89	8.684095778E-4	1.347224478E-3	2.342255527E-5
9.9	4.409117748E-4	1.985205940E-3	-1.561318338E-3
9.91	-6.535581200E-5	2.164303548E-3	-1.251479774E-3
9.92	6.635453793E-4	9.504934223E-4	1.101613218E-3
9.93	1.302644492E-3	1.305751563E-3	1.056729946E-4
9.94	2.054495495E-4	1.197923817E-3	4.131093372E-4
9.950000000000001	-9.026354858E-4	9.793881342E-4	-1.561474622E-4
9.96	6.673655849E-5	1.078238577E-3	1.128239779E-4
9.97	1.604846425E-4	1.133315906E-3	1.329086006E-3
9.98	-1.981149507E-4	1.830923449E-3	1.586282253E-3
9.99	5.401992005E-5	1.588227424E-3	5.751082238E-4
10.0	6.739992489E-4	6.917684543E-4	-1.623652738E-4
10.01	3.308490422E-4	3.514107021E-4	4.055036308E-4
10.02	-9.032808236E-4	2.445705088E-4	1.126739217E-3
10.03	-7.704776177E-4	1.569184492E-4	3.996473429E-4
10.040000000000001	-5.718498977E-4	7.340902766E-4	1.640307273E-4
10.05	-2.570208059E-4	8.951104412E-4	-7.051224169E-4
10.06	-2.093390568E-4	1.180239018E-3	1.687578357E-4
10.07	-2.821812833E-4	-1.734919660E-4	-7.626830040E-5
10.08	-1.039749152E-4	2.353334946E-4	-5.286720431E-4
10.09	-1.253992605E-3	7.954260224E-4	3.701799251E-4
10.1	-5.919196667E-4	4.215848512E-4	8.123561891E-4
10.11	2.055279157E-4	1.622402311E-4	4.512459262E-4
10.120000000000001	-3.249430955E-5	3.539105605E-4	7.230774176E-4
10.13	-1.444105978E-4	-1.875800089E-5	7.769156258E-4
10.14	-1.057766265E-4	-1.363715485E-4	-1.513086232E-4
10.15	-2.645704523E-4	8.235626937E-5	-1.709627873E-4
10.16	-7.843414697E-4	2.445852476E-4	6.567602228E-4
10.17	-1.386692574E-3	5.156567443E-4	4.277100102E-4
10.18	-3.411427661E-4	4.051266598E-4	1.033465283E-3
10.19	-7.622356581E-4	-7.385961654E-4	7.986790010E-4
10.200000000000001	-3.151485059E-4	-1.435931297E-3	1.917994404E-3
10.21	6.520216145E-4	-6.382572957E-4	3.050024113E-4
10.22	1.311187803E-3	-4.496705938E-4	7.241905627E-4
10.23	1.375632715E-3	-1.541506675E-3	7.494084152E-4
10.24	9.277642572E-4	-1.795034513E-3	6.098808804E-4
10.25	-5.616726543E-4	-1.517456874E-3	5.958486240E-4
10.26	-1.015750740E-3	-1.136269625E-3	3.514963374E-4
10.27	-7.022627801E-4	-1.231493694E-3	-9.790118661E-5
10.28	-4.288416819E-4	-1.647706980E-3	5.038896825E-4
10.290000000000001	-6.558094040E-4	-1.492402100E-3	1.786243159E-3
10.3	-6.932795697E-4	-1.054779761E-3	1.035984409E-3
10.31	-1.419036531E-4	-1.428521232E-3	4.588289348E-4
10.32	-2.931910027E-4	-2.031751746E-3	1.474185112E-3
10.33	4.390569833E-4	-2.817144000E-3	1.067162683E-3
10.34	3.588240374E-4	-2.607812843E-3	1.033088041E-3
10.35	-6.240735257E-4	-1.668431498E-3	1.325863749E-4
10.36	2.750208216E-4	-1.283796851E-3	9.187121542E-4
10.370000000000001	6.351205907E-4	-2.500519399E-4	4.563807023E-4
10.38	-1.289763589E-4	-5.048546899E-5	9.765225799E-5
10.39	-3.825578224E-4	-8.818131422E-4	6.489793428E-4
10.4	-5.635160307E-4	-1.295503115E-3	1.913963241E-4
10.41	-3.089828698E-4	-1.468659219E-3	3.005325859E-4
10.42	-9.852227685E-4	-7.996370328E-4	6.530207814E-4
10.43	-1.335570074E-3	-3.340102417E-4	1.111615796E-3
10.44	-4.314258676E-4	-7.443312296E-4	1.702349684E-3
10.450000000000001	-2.908814225E-4	-7.140320100E-4	1.370734024E-3
10.46	-5.395110837E-4	-1.071825153E-4	1.445835671E-4
10.47	2.305431452E-4	-1.103596840E-4	1.230613321E-3
10.48	-1.487086594E-4	-1.902310876E-4	2.699778658E-4
10.49	4.062035805E-4	-4.662218204E-4	1.011961081E-3
10.5	8.173785560E-5	3.838781453E-4	5.261677653E-4
10.51	-4.020796770E-4	1.282614864E-4	9.688553466E-4
10.52	-2.677067162E-4	4.222671092E-4	1.249366822E-3
10.53	-4.464380112E-4	2.710037359E-4	8.070613166E-4
10.540000000000001	-3.125561502E-4	-9.924434953E-6	1.185606756E-3
10.55	4.649203156E-4	2.531512518E-4	1.303294219E-3
10.56	6.933944237E-4	2.293718002E-4	1.419423718E-3
10.57	3.958509046E-4	-9.480941577E-5	1.539255893E-3
10.58	4.290893304E-4	7.394893884E-4	8.179132622E-4
10.59	3.627689363E-5	1.205634506E-3	6.485966105E-4
10.6	2.875258303E-4	7.880327097E-4	5.434559811E-4
10.61	7.054313804E-4	1.373265648E-3	5.478550590E-4
10.620000000000001	-9.299307911E-5	2.018037003E-3	1.076424299E-3
10.63	2.598112285E-4	5.727669396E-4	3.490886871E-4
10.64	1.066617871E-4	1.673197855E-3	-6.387567426E-4
10.65	-6.003785765E-4	1.392143108E-3	-1.833038908E-4
10.66	-5.960792115E-4	1.795400942E-3	5.490359922E-4
10.67	-2.965408829E-4	1.109293867E-3	8.959192950E-4
10.68	-4.653591519E-5	9.005378657E-4	7.696685363E-4
10.69	2.077278587E-5	2.188878891E-3	6.193459166E-4
10.700000000000001	7.617278630E-5	2.180018101E-3	1.039668473E-3
10.71	4.406347807E-4	7.541103706E-4	1.651579514E-3
10.72	1.023481785E-4	1.028501074E-3	1.282806654E-3
10.73	3.755751947E-4	1.192058491E-3	1.212761684E-3
10.74	-3.257200510E-4	1.653353954E-3	-4.216037689E-4
10.75	-8.199690809E-4	2.111821685E-3	9.768860794E-4
10.76	1.340908799E-4	1.760508482E-3	9.125178323E-4
10.77	-2.916734423E-4	3.484819873E-4	1.054130127E-3
10.78	1.586038564E-4	3.811498960E-4	-9.186223742E-5
10.790000000000001	2.598153364E-4	4.375318348E-4	-1.286884878E-4
10.8	3.560282892E-4	3.613677581E-4	4.426269455E-4
10.81	5.996956906E-4	1.113355628E-3	1.098988942E-3
10.82	6.256109388E-4	1.831205156E-3	1.463929259E-3
10.83	7.880467194E-4	9.396795916E-4	8.025618759E-4
10.84	1.239492044E-3	3.629724946E-4	3.137630728E-4
10.85	1.282620477E-4	2.924605264E-4	-2.564074777E-4
10.86	1.796560732E-4	6.372030359E-4	1.339735450E-3
10.870000000000001	7.262580407E-4	3.610704309E-4	7.675251186E-4
10.88	2.810783140E-5	-4.004623555E-4	2.330082804E-4
10.89	6.635201900E-4	1.078226487E-5	6.700749420E-4
10.9	1.071663852E-3	2.846553520E-4	1.395275846E-3
10.91	9.912615105E-4	-2.306511126E-4	1.208617248E-3
10.92	1.192371316E-3	-6.348088664E-4	1.353594762E-3
10.93	3.692644055E-4	-1.125766355E-3	9.808119907E-4
10.94	-2.433553210E-4	-9.810698933E-4	6.082575257E-4
10.950000000000001	4.171144060E-4	-7.823117776E-4	1.029673460E-3
10.96	6.330368913E-4	-1.405999454E-3	1.243495989E-3
10.97	3.352846708E-4	-9.615837656E-4	9.349870287E-4
10.98	-1.559223833E-4	-7.784414787E-4	5.907509972E-4
10.99	3.814022784E-4	-1.350393822E-3	1.674685199E-3
11.0	-4.277348971E-5	-1.614275903E-3	1.908931264E-3
11.01	1.114254390E-4	-1.571705733E-3	8.143681437E-4
11.02	-8.997523069E-4	-1.986175736E-3	1.552234312E-3
11.03	1.198492123E-3	-2.385253530E-3	2.098352621E-3
11.040000000000001	6.549959905E-4	-1.051357319E-3	1.095531530E-3
11.05	8.169488845E-4	-3.618141277E-4	9.812452684E-4
11.06	-5.472055506E-4	-6.540260019E-4	8.504036135E-4
11.07	-5.526964148E-4	-1.270643117E-3	8.010924948E-4
11.08	3.719040977E-4	-1.989438992E-3	9.663034993E-4
11.09	4.831538799E-4	-2.024138488E-3	1.326128035E-3
11.1	-1.952707034E-4	-1.857111842E-3	1.274767196E-3
11.11	-3.309420346E-4	-2.495410264E-3	5.986315127E-4
11.120000000000001	4.922931763E-4	-1.935952015E-3	9.662193007E-4
11.13	4.689601502E-4	-1.895109635E-3	1.473131914E-3
11.14	-1.435316182E-4	-9.934773177E-4	2.826073272E-4
11.15	1.002830391E-3	-6.226222812E-4	-6.747622995E-4
11.16	6.979073890E-4	-8.849936121E-4	5.300697939E-4
11.17	-2.439449617E-4	-3.653178236E-4	7.433128787E-4
11.18	-1.013082294E-3	-6.916507175E-4	4.847560852E-4
11.19	-2.695850390E-4	-7.755745075E-4	1.276110321E-3
11.200000000000001	-8.677517665E-5	-8.717566841E-4	1.154319123E-3
11.21	8.878823757E-5	-8.922916974E-4	1.207148658E-3
11.22	5.893150050E-5	-1.288614786E-3	1.561687213E-3
11.23	1.648806800E-4	-1.663670804E-3	1.044895153E-3
11.24	4.607221975E-4	-1.241031681E-3	9.780742736E-4
11.25	5.061930665E-4	-1.882698251E-4	1.304675166E-3
11.26	4.610633235E-4	4.113752059E-4	5.631405348E-4
11.27	2.943129329E-4	4.818781668E-4	7.496336037E-4
11.28	-9.840155235E-5	7.114285146E-4	3.869251983E-4
11.290000000000001	2.677776422E-4	7.858563998E-4	1.127334508E-3
11.3	-4.745586481E-4	4.481030104E-4	1.186855760E-3
11.31	-1.548091377E-4	-4.780344479E-4	1.254965678E-3
11.32	5.676910920E-4	1.201617455E-3	5.275383607E-4
11.33	7.340118857E-4	1.248615125E-3	1.199534733E-3
11.34	4.848343518E-4	1.491581879E-3	7.605664567E-4
11.35	4.206680412E-4	1.844060750E-3	1.169700741E-3
11.36	2.931044864E-4	1.956664701E-3	9.915777174E-4
11.370000000000001	2.579618174E-4	1.634352776E-3	7.161552447E-4
11.38	6.090925631E-4	1.148989642E-3	8.508421322E-4
11.39	4.353565569E-4	1.257738192E-3	6.140222255E-4
11.4	2.255903738E-4	1.285763106E-3	9.509332728E-4
11.41	7.023919733E-4	9.388087140E-4	1.068562032E-3
11.42	-4.253669623E-4	1.536809935E-3	2.230798374E-3
11.43	-4.924203304E-4	2.085084063E-3	2.149709228E-3
11.44	7.854333469E-4	1.338802637E-3	1.709841667E-3
11.450000000000001	7.291892653E-4	1.527369915E-3	1.371964020E-3
11.46	2.444433025E-4	2.166808409E-3	2.063190127E-3
11.47	2.425323032E-4	1.804609148E-3	1.207793359E-3
11.48	4.500584989E-4	1.493116084E-3	9.724782776E-4
11.49	4.875696135E-4	1.001098915E-3	1.105943230E-3
11.5	-2.035616513E-4	3.723023933E-4	1.599808101E-3
11.51	-8.296256327E-4	8.091829027E-4	1.557951781E-3
11.52	-6.054391287E-4	9.708326410E-4	1.227345762E-3
11.53	7.189973229E-5	4.354394214E-4	9.739671270E-4
11.540000000000001	3.774589279E-5	9.894439127E-4	4.958106405E-4
11.55	-5.069857051E-4	1.651857763E-3	8.567297828E-4
11.56	-8.290021620E-5	8.934703572E-4	5.467269577E-5
11.57	-2.996330211E-4	1.117487278E-3	5.016694541E-4
11.58	2.192349293E-4	-2.299704337E-5	8.511547640E-4
11.59	1.861249601E-4	5.313610844E-4	1.274039164E-3
11.6	5.489879527E-4	4.297593524E-4	3.830430818E-4
11.61	-1.014475185E-4	4.252943266E-4	4.363915556E-4
11.620000000000001	-4.002719595E-4	6.927307343E-4	7.906233596E-4
11.63	-3.098981550E-4	4.336219325E-4	2.350239417E-4
11.64	-1.701788381E-4	4.304994940E-4	4.458326328E-4
11.65	1.000857578E-4	5.103424716E-4	8.243076317E-4
11.66	1.283575062E-4	-1.310801943E-4	7.608824624E-4
11.67	1.017237929E-4	-6.300045298E-4	8.789616912E-4
11.68	5.558982833E-4	-7.930509524E-4	6.722105954E-4
11.69	3.053502567E-4	-1.363721995E-3	1.256654995E-3
11.700000000000001	3.272366527E-4	-1.344415825E-3	1.028682513E-3
11.71	-6.371305958E-4	-1.556428393E-3	2.146583386E-3
11.72	-2.208898271E-4	-2.180790638E-3	1.067187205E-3
11.73	-1.161107852E-3	-1.987263784E-3	1.262313420E-3
11.74	-3.884266626E-4	-1.905047283E-3	4.400849857E-4
11.75	-6.726070981E-5	-2.078822047E-3	4.851785154E-4
11.76	7.078548703E-4	-1.413644380E-3	1.122415847E-3
11.77	1.202535916E-3	-1.759332680E-3	8.158467528E-4
11.78	1.189223068E-3	-1.615054113E-3	8.939642345E-4
11.790000000000001	9.310788908E-4	-2.013251242E-3	7.970293763E-4
11.8	4.699163592E-4	-2.434023047E-3	8.548260385E-4
11.81	7.856370344E-5	-1.566756923E-3	9.207104527E-4
11.82	2.653280068E-4	-7.841255299E-4	2.011974911E-4
11.83	4.163824803E-4	-1.598752355E-3	5.733652890E-4
11.84	1.275731081E-4	-9.629578266E-4	3.782837964E-4
11.85	2.242678623E-4	-1.932397852E-3	1.130567055E-3
11.86	1.006125433E-3	-9.008269048E-4	3.079311641E-4
11.870000000000001	-9.927796627E-4	-1.015293300E-3	8.612889201E-4
11.88	-6.428190649E-4	-1.496691281E-3	6.081066338E-4
11.89	-2.666811137E-4	-1.016047910E-3	4.776406671E-4
11.9	-1.102400435E-3	-6.167909802E-4	5.036619693E-4
11.91	-5.011456554E-4	-9.963580063E-4	8.721154764E-4
11.92	-1.327320811E-4	-1.617429918E-3	1.237760943E-3
11.93	1.342229991E-4	-1.054031189E-3	6.238858142E-4
11.94	4.796928787E-4	-5.395808348E-4	-3.114051733E-4
11.950000000000001	8.933082469E-4	-5.666267084E-4	-2.612022581E-4
11.96	9.218916599E-4	-8.511790642E-4	3.681625579E-4
11.97	-1.541313563E-4	-1.249205728E-3	4.332945442E-4
11.98	-4.708365263E-4	-9.549258255E-4	1.511327686E-3
11.99	-3.771114569E-4	6.788930802E-5	1.247358005E-3
12.0	6.835045452E-4	9.060755012E-4	-8.515850789E-4
12.01	4.927677493E-4	2.386141244E-4	1.996725302E-3
12.02	1.438771704E-3	3.407824970E-4	1.804608256E-4
12.030000000000001	5.344144885E-5	1.160045982E-3	6.465153734E-4
12.040000000000001	5.235320028E-4	8.104316637E-4	5.810734242E-4
12.05	8.426118276E-4	3.297708357E-4	3.163441117E-4
12.06	1.246284459E-4	7.754664538E-5	5.416894549E-4
12.07	-7.779564592E-4	6.507973995E-4	1.078176957E-3
12.08	-1.157442172E-3	9.111788315E-4	1.477885585E-3
12.09	-5.958536866E-4	5.025356185E-4	1.137709427E-3
12.1	1.837168069E-4	1.071288556E-3	3.297217088E-4
12.11	-1.877483443E-4	1.446464125E-3	6.009993130E-4
12.120000000000001	-7.357624482E-4	9.325357817E-4	1.506427995E-3
12.13	-3.401809755E-4	1.095110039E-3	1.154245115E-3
12.14	-8.822603997E-4	1.933898650E-3	1.262697585E-4
12.15	1.011043670E-3	1.818661719E-3	7.888885009E-4
12.16	-2.036343327E-4	1.803943244E-3	1.569759813E-3
12.17	-9.400756893E-4	1.147156197E-3	1.164353769E-3
12.18	4.669127884E-5	2.085766723E-3	2.687577729E-4
12.19	-1.193067600E-3	1.678959561E-3	5.370780610E-4
12.200000000000001	3.087847119E-4	1.451015409E-3	-3.195409606E-4
12.21	5.647226144E-4	1.086624794E-3	-3.724684165E-4
12.22	6.951872087E-5	1.158261166E-3	-2.361094539E-4
12.23	-5.496762976E-4	1.513322087E-3	1.394825760E-5
12.24	-9.007537977E-4	1.179454480E-3	5.622798580E-4
12.25	3.503508107E-5	3.448568961E-4	6.351928322E-4
12.26	1.228821513E-4	6.997351148E-4	1.103756891E-3
12.27	3.537772315E-4	9.315390764E-4	-3.334309090E-4
12.280000000000001	6.581682537E-4	2.216513745E-3	3.981924189E-4
12.290000000000001	1.122602074E-4	1.636925197E-3	6.432276152E-4
12.3	-5.285713739E-5	5.056356456E-4	-5.739051035E-4
12.31	6.519747005E-4	4.832862036E-4	-2.401852566E-4
12.32	6.325163261E-4	1.174352317E-3	-4.995744087E-4
12.33	-1.597004780E-4	8.654431015E-4	1.879692521E-4
12.34	-7.729056048E-4	3.232402683E-4	3.866094806E-4
12.35	-2.070917567E-4	-2.211194777E-4	1.190173775E-3
12.36	5.623095916E-5	-9.027488350E-4	1.219643177E-3
12.370000000000001	-1.329459205E-4	-6.615973548E-4	9.817372008E-4
12.38	5.089496862E-5	1.691840830E-4	1.124296180E-3
12.39	-6.550150181E-5	8.806322220E-5	1.151691883E-3
12.4	-1.078949024E-3	-6.568286967E-4	9.815811530E-4
12.41	-1.196454331E-3	3.007761665E-4	4.562958540E-4
12.42	3.664390980E-5	-4.100253054E-4	9.241199251E-4
12.43	2.758741571E-5	-1.481009899E-3	7.365864688E-4
12.44	-1.677618463E-4	-1.426115184E-3	4.945200219E-4
12.450000000000001	-2.084335540E-4	-1.346663205E-3	1.036489604E-3
12.46	1.592520154E-4	-1.499049395E-3	9.092234208E-4
12.47	-3.665404629E-4	-1.957232739E-3	-2.421436155E-4
12.48	-3.071982654E-4	-1.617884179E-3	1.040768949E-3
12.49	-4.559926619E-4	-1.504149420E-3	6.105768240E-4
12.5	-3.483571276E-4	-1.700894856E-3	3.479991792E-4
12.51	-2.269886982E-5	-1.457399377E-3	1.068268454E-3
12.52	4.383671037E-5	-1.019856519E-3	1.242553665E-3
12.530000000000001	-3.063304778E-6	-1.362121361E-3	8.891429586E-4
12.540000000000001	3.319660611E-4	-1.847652889E-3	7.114746472E-4
12.55	1.355375254E-3	-1.789159413E-3	8.253107500E-4
12.56	3.193226965E-4	-1.986450161E-3	1.865239957E-4
12.57	3.691414118E-5	-1.741711553E-3	6.335181728E-4
12.58	3.613804971E-4	-2.709430391E-3	4.485386759E-4
12.59	-5.159409414E-4	-2.446556410E-3	1.793544478E-3
12.6	-2.671334855E-4	-6.458605978E-4	1.374269944E-3
12.61	2.004217807E-4	-7.313888566E-4	7.399579018E-4
12.620000000000001	-7.447624333E-5	-8.134690550E-4	6.705114225E-4
12.63	-1.431449187E-4	-1.532613279E-3	3.539700764E-4
12.64	-3.518205061E-4	-2.057072302E-3	2.693370071E-4
12.65	-3.503577428E-4	-1.085548767E-3	8.969550769E-4
12.66	-8.891397894E-5	-1.060115618E-3	9.915730113E-4
12.67	3.897042844E-5	-1.687003984E-3	5.828028550E-4
12.68	-2.932420087E-5	-1.011329284E-3	3.596995499E-4
12.69	-3.456333486E-4	-7.651896822E-5	7.807546257E-5
12.700000000000001	5.095167523E-4	-1.399703679E-3	7.545047085E-5
12.71	-1.342016259E-3	-2.876677300E-4	1.711587480E-4
12.72	-3.766091436E-4	-8.278000255E-4	-1.229641912E-3
12.73	1.283626774E-3	2.411838807E-4	1.219488993E-3
12.74	1.337553425E-4	-4.442237676E-4	4.246138971E-6
12.75	-1.058482233E-4	8.880357746E-4	1.843141811E-4
12.76	2.805007418E-4	3.106735767E-5	1.951150358E-4
12.77	3.894569018E-4	-5.839679159E-4	-3.022282305E-5
12.780000000000001	2.877293945E-5	3.360523671E-4	3.449488384E-4
12.790000000000001	1.214994441E-4	9.786061821E-4	5.760321907E-4
12.8	1.078007356E-4	8.080470071E-4	3.260284647E-4
12.81	-5.901038676E-4	1.667673553E-3	3.422714509E-4
12.82	-4.578926096E-4	1.914203174E-3	3.917719593E-4
12.83	-4.777537945E-4	7.692728886E-4	8.101953505E-4
12.84	-1.930489646E-4	6.777226283E-4	3.853550564E-4
12.85	-1.008734924E-4	1.521684072E-3	-1.727022594E-4
12.86	-1.472577682E-3	1.761022974E-3	-1.509409994E-4
12.870000000000001	4.015674289E-5	1.892459965E-3	6.199279977E-4
12.88	-9.062507655E-5	2.512268834E-3	3.382626510E-4
12.89	-4.594788123E-4	2.013374476E-3	4.545293732E-4
12.9	5.299701787E-5	2.219498120E-3	3.939989954E-4
12.91	1.354975602E-4	1.695424255E-3	3.121090575E-4
12.92	-3.708662941E-4	2.067531433E-3	1.450841779E-7
12.93	-2.988347001E-4	1.637646771E-3	-8.625289364E-5
12.94	2.636192124E-4	1.272709736E-3	6.024504702E-6
12.950000000000001	1.389383951E-4	1.824875522E-3	2.491063411E-4
12.96	-6.350571242E-4	1.521033614E-3	6.384520053E-4
12.97	-5.361984552E-4	1.673344296E-3	2.168366227E-4
12.98	-1.675068965E-4	2.555959842E-3	1.917548183E-4
12.99	-8.094229854E-4	1.029614743E-3	5.059069101E-4
13.0	-1.525744052E-3	1.132123797E-3	1.559248998E-3
13.01	-3.089959229E-4	1.549375448E-3	6.017941386E-4
13.02	1.207949097E-4	9.252513520E-4	6.211461623E-4
13.030000000000001	4.796372464E-4	1.039443044E-3	8.760907610E-4
13.040000000000001	-3.808009494E-4	1.011240777E-3	3.470290098E-4
13.05	-1.960418166E-4	7.678104031E-4	-1.502192076E-4
13.06	5.709131338E-5	6.294586224E-4	5.060110683E-4
13.07	-9.959938786E-5	6.955638028E-4	5.740666423E-4
13.08	-3.117756533E-4	4.751359400E-4	-8.617777594E-4
13.09	3.601225762E-5	3.687949974E-4	-8.817034331E-4
13.1	9.003037575E-4	9.166771316E-4	-3.779952356E-4
13.11	5.063093747E-4	7.463361453E-4	-6.747607277E-4
13.120000000000001	-2.061812527E-4	-2.027725519E-4	5.951469526E-4
13.13	3.962079637E-4	-5.641045239E-4	-4.321935881E-5
13.14	7.692944078E-4	-9.663886480E-4	7.654137102E-4
13.15	-7.361273105E-4	-2.298848211E-4	6.040007377E-5
13.16	-4.201729650E-5	-1.903545648E-4	-2.208429437E-4
13.17	-1.187659349E-3	-9.214790733E-4	2.894892292E-4
13.18	1.308963310E-4	5.190155855E-4	9.022208661E-4
13.19	3.399631450E-4	-5.850871679E-4	1.729430107E-4
13.200000000000001	-1.351087597E-4	-1.083938211E-3	3.933197022E-4
13.21	-2.249834271E-4	-1.407537404E-3	3.055392751E-4
13.22	-2.908018363E-6	-2.037845831E-3	-2.046918899E-4
13.23	3.006456708E-4	-1.992347008E-3	-1.132666933E-4
13.24	6.258120106E-4	-1.273187338E-3	1.643301938E-4
13.25	4.872038047E-4	-7.093793706E-4	1.992932296E-4
13.26	1.050093374E-3	-6.464182512E-4	-2.309574129E-4
13.27	5.516620109E-4	-5.570618979E-4	-1.987678188E-4
13.280000000000001	3.348682538E-4	-8.073697801E-4	2.714057374E-4
13.290000000000001	5.146091377E-4	-1.729723047E-3	3.674210609E-5
13.3	-2.224051098E-4	-1.223327814E-3	7.559789401E-4
13.31	-3.376561926E-4	-1.734630313E-3	5.598179659E-4
13.32	-2.835986539E-4	-1.905842682E-3	5.524252165E-4
13.33	-3.275936418E-4	-1.925267211E-3	5.762943764E-5
13.34	5.644811549E-4	-1.665183261E-3	2.904996741E-4
13.35	7.119480002E-4	-1.457036343E-3	1.061279227E-4
13.36	5.397659138E-4	-1.398510902E-3	1.495664995E-4
13.370000000000001	3.086088078E-4	-1.540347047E-3	1.414215007E-4
13.38	1.459079711E-4	-1.289437603E-3	7.200999754E-5
13.39	5.905525526E-4	-3.580529636E-4	8.503237278E-4
13.4	-7.635549904E-5	-5.712740101E-4	7.901531632E-7
13.41	8.777252285E-4	-5.043887113E-4	5.738113314E-5
13.42	4.292221671E-4	-3.178054787E-4	2.621231368E-4
13.43	3.272091073E-4	-6.057905803E-4	1.117632110E-3
13.44	-7.342057730E-4	-1.024870090E-3	3.910321146E-4
13.450000000000001	-5.374541336E-4	4.983474908E-4	-1.126535924E-3
13.46	2.448937689E-4	-2.040764794E-4	2.501501659E-4
13.47	-2.507973023E-5	-6.093060282E-4	3.773242358E-4
13.48	1.380719436E-4	-3.205033079E-4	5.987298513E-4
13.49	4.167406265E-4	-2.808971387E-4	3.003946393E-4
13.5	7.914786452E-4	-2.715052520E-4	-9.914494991E-5
13.51	5.235818967E-4	4.397753178E-6	6.245921754E-5
13.52	-7.058525028E-4	-9.868976443E-5	4.812766325E-5
13.530000000000001	3.244168187E-4	-4.002391505E-5	1.067989507E-4
13.540000000000001	-2.036506737E-4	1.510110516E-3	8.652390541E-5
13.55	-2.052641788E-4	1.668963919E-3	-5.697014644E-5
13.56	-9.417699620E-4	1.419815471E-3	-6.072625230E-4
13.57	-3.069864029E-4	4.654277142E-4	2.633811726E-5
13.58	-3.211090128E-4	1.454315784E-3	-8.143244971E-5
13.59	-1.415917591E-4	2.039551226E-3	-2.519607113E-4
13.6	3.091304111E-4	2.042895481E-3	9.640675066E-6
13.61	2.240017897E-4	2.305509667E-3	-2.938091736E-4
13.620000000000001	4.424720192E-4	1.872712181E-3	-7.691489232E-4
13.63	1.525439692E-3	1.918442404E-3	8.895579329E-4
13.64	-3.288056796E-4	1.852133248E-3	2.809495742E-4
13.65	-4.685065392E-4	1.816183806E-3	-5.307307899E-4
13.66	-9.684838106E-5	1.677227797E-3	-2.497281202E-4
13.67	6.419812833E-4	6.300021149E-4	-2.457915245E-5
13.68	-1.990544833E-4	1.333955819E-3	3.036825621E-4
13.69	-5.174924717E-4	1.147906484E-3	3.291623936E-4
13.700000000000001	2.999636059E-5	1.740470589E-3	1.021777933E-4
13.71	1.092426339E-3	2.001844729E-3	6.995828418E-6
13.72	1.038423815E-3	1.312873270E-3	7.012460150E-6
13.73	9.132115861E-5	9.457920425E-4	-5.297250200E-5
13.74	-1.439808534E-4	1.550930610E-3	-1.514438716E-4
13.75	-8.441648669E-5	1.822396556E-3	-1.874411288E-4
13.76	-8.059390216E-4	1.067217615E-3	-4.585384584E-4
13.77	-1.078691122E-3	-3.102477251E-4	-9.341811363E-4
13.780000000000001	-1.192756286E-3	-1.527934739E-4	-5.625996921E-4
13.790000000000001	-2.456014948E-3	1.877511052E-3	-6.137321961E-4
13.8	-4.306214357E-4	1.150980238E-3	5.318898112E-4
13.81	1.440137975E-3	7.429613730E-4	-3.736403638E-4
13.82	4.310847156E-5	7.286312714E-4	-4.805846771E-4
13.83	1.057521107E-3	2.770067954E-4	-6.030039722E-4
13.84	-1.840950174E-4	-1.165168317E-4	-4.524349832E-4
13.85	-2.478983203E-4	2.727024335E-5	-1.727809092E-4
13.86	6.364392875E-5	5.909982784E-4	-1.614639743E-5
13.870000000000001	-1.547475199E-4	2.193124153E-6	9.992298935E-5
13.88	-4.707636183E-5	-3.757086702E-4	-1.200685716E-4
13.89	1.557344127E-4	9.467098414E-5	-1.486217126E-4
13.9	-8.835292753E-4	-5.209752099E-4	2.604292406E-4
13.91	-1.281803170E-3	-1.076229504E-3	-9.192622673E-4
13.92	3.278334871E-4	-1.250934550E-3	3.105131289E-4
13.93	8.601779594E-5	-7.710664996E-4	6.719897633E-5
13.94	1.320356989E-3	-4.523615090E-4	1.701700666E-4
13.950000000000001	1.347787635E-3	-1.087977714E-3	2.713301867E-4
13.96	1.301830116E-3	-1.554948965E-3	5.511805861E-4
13.97	6.861045678E-4	-1.311359249E-3	-7.119423386E-4
13.98	2.869863957E-4	-1.418824976E-3	-1.985005944E-5
13.99	-1.166456441E-4	-1.063554639E-3	6.754077541E-4
14.0	-4.574431801E-4	-2.483067308E-3	3.501419407E-5
14.01	-6.635995914E-4	-2.516947198E-3	-6.457842238E-4
14.02	-6.810166812E-4	-1.273840054E-3	5.628279097E-5
14.030000000000001	-2.073292321E-4	-6.933420900E-4	1.323806469E-4
14.040000000000001	5.898952593E-4	-1.115903694E-3	-7.895549171E-4
14.05	8.705727171E-4	-1.893023694E-3	-3.993945659E-4
14.06	3.929955822E-4	-9.039542436E-4	6.678807838E-5
14.07	4.576234550E-4	-8.014003738E-4	-2.067958088E-4
14.08	-5.662710843E-4	-3.115758270E-4	-1.531046865E-4
14.09	2.961785453E-4	-3.475202113E-5	-3.295771341E-4
14.1	-3.309248658E-4	-1.286121460E-3	-6.010328753E-4
14.11	-5.213195050E-4	-3.872456321E-4	-5.962574644E-4
14.120000000000001	5.856943397E-4	7.430200384E-6	-2.649117441E-4
14.13	-2.834815690E-5	-4.575320425E-4	-1.500238596E-4
14.14	-6.597589723E-4	-1.264163434E-3	5.370509345E-4
14.15	-4.298016049E-4	-1.331165082E-3	6.712114302E-5
14.16	-1.807854334E-4	-6.196532040E-4	-2.609832732E-4
14.17	-2.626530341E-4	-7.557754580E-5	2.655306200E-4
14.18	5.250162203E-5	-2.827970168E-4	-1.245159377E-4
14.19	5.668500712E-4	-5.346817593E-4	5.175458864E-4
14.200000000000001	-2.213130808E-4	-5.031398130E-4	4.002641500E-4
14.21	-7.025713513E-4	-5.224339517E-4	4.426161106E-4
14.22	3.723720962E-4	-1.140925732E-3	6.367043280E-4
14.23	-6.767454053E-4	-5.345374160E-4	-1.186154470E-3
14.24	2.207354369E-4	3.661687113E-4	5.224445426E-4
14.25	-1.495515256E-4	-5.084040801E-4	3.743488434E-4
14.26	-4.349795889E-5	-5.150438877E-4	6.014710128E-4
14.27	2.475034898E-4	-2.014095207E-4	-3.414657127E-4
14.280000000000001	1.667447083E-4	5.642606117E-4	-1.157796370E-4
14.290000000000001	3.998644931E-4	1.069792300E-3	2.282043829E-4
14.3	2.729378770E-4	7.553972140E-4	-3.523852813E-5
14.31	2.915998428E-4	9.668332888E-4	-3.283169290E-4
14.32	1.668205226E-4	1.445820497E-3	-6.626867436E-4
14.33	-1.247580270E-3	6.921032933E-4	-6.016022836E-4
14.34	-1.550068680E-3	7.020985336E-4	3.450521896E-4
14.35	-1.001104389E-3	1.560975039E-3	-1.566890161E-3
14.36	-5.025330615E-4	1.111573346E-3	-6.174805260E-4
14.370000000000001	7.135038365E-4	1.268585922E-3	-1.381738929E-3
14.38	4.561906254E-4	2.494606394E-3	-2.294283956E-4
14.39	4.061964335E-4	1.568096889E-3	-1.182144830E-4
14.4	2.969123389E-4	1.672421357E-3	3.184240469E-4
14.41	1.374924736E-4	1.717688562E-3	9.503036297E-5
14.42	-1.612886718E-4	1.175236127E-3	-3.878221406E-4
14.43	1.424330767E-5	1.636700499E-3	-4.210872778E-4
14.44	-3.096672604E-4	1.512621818E-3	3.065962532E-4
14.450000000000001	-9.585131664E-4	3.511634829E-4	6.848699563E-4
14.46	-5.390279027E-4	7.693569110E-4	-2.937728498E-4
14.47	-9.942357352E-4	1.308725891E-3	-7.063060888E-4
14.48	-3.939234071E-4	1.888983288E-3	-3.017751377E-4
14.49	4.290215392E-4	5.490407984E-4	-2.142278450E-4
14.5	5.432935564E-4	-2.388962860E-4	4.047878070E-4
14.51	2.292206084E-4	6.692670472E-4	3.578843178E-5
14.52	3.888798233E-4	7.563541340E-4	9.131337091E-4
14.530000000000001	1.145054762E-3	1.295262798E-3	1.594548239E-4
14.540000000000001	9.580836827E-4	1.169754025E-3	3.965275993E-4
14.55	1.815129710E-4	1.128693393E-3	1.905138737E-4
14.56	6.188328290E-5	6.739931705E-4	-3.392907583E-5
14.57	-2.185389748E-4	1.262700820E-3	-4.454323012E-4
14.58	-9.644232176E-4	1.004305181E-3	2.267271817E-4
14.59	-9.235106273E-4	5.009244690E-4	8.424756653E-4
14.6	-1.999835235E-4	5.163413998E-4	-1.850287254E-4
14.61	-1.908224537E-4	-5.807105378E-4	-8.503212699E-4
14.620000000000001	-5.540987921E-5	-1.049150882E-3	6.261959125E-4
14.63	9.828585775E-4	-7.728418082E-5	-3.024430669E-7
14.64	-2.480085436E-4	-1.255789208E-3	3.933870389E-4
14.65	-2.726425276E-4	-2.567677170E-4	-8.219557494E-4
14.66	4.180887084E-4	-6.049577784E-4	-1.403548788E-4
14.67	7.925303028E-4	-8.847100653E-4	-8.787930623E-6
14.68	-1.048726058E-3	-1.380767359E-3	2.954328698E-4
14.69	-8.680038531E-4	-1.090014931E-3	-3.192751221E-4
14.700000000000001	-2.193390694E-4	-1.151045365E-3	7.790831542E-5
14.71	1.106549287E-4	-1.435971738E-3	-2.928033706E-4
14.72	8.155596008E-5	-1.929970735E-3	-6.000767293E-4
14.73	6.739949136E-6	-2.063171793E-3	2.844605017E-4
14.74	3.612669285E-5	-1.418082873E-3	4.662040780E-4
14.75	-5.557638314E-4	-2.007814853E-3	2.184724739E-4
14.76	8.469244038E-4	-1.495091273E-3	1.056927592E-4
14.77	-4.964741666E-4	-2.024064663E-3	-1.027163471E-3
14.780000000000001	-1.293423874E-3	-1.449372875E-3	4.819026140E-5
14.790000000000001	1.071004459E-4	-9.215486209E-4	-4.153504296E-4
14.8	3.635809608E-4	-1.377020142E-3	-6.771549028E-4
14.81	-1.907572253E-4	-1.619763259E-3	-4.554773949E-4
14.82	1.291784950E-4	-1.403590859E-3	-3.237514082E-4
14.83	3.925504258E-4	-9.629917036E-4	-3.295886017E-4
14.84	-6.263438754E-4	-4.131304548E-4	-3.201604333E-4
14.85	-5.760135163E-4	-1.237472874E-3	-2.792507676E-4
14.86	-1.098409912E-3	-2.060291290E-3	1.069747102E-4
14.870000000000001	-5.754456553E-4	-5.585123558E-4	-4.150489397E-4
14.88	1.764654771E-4	-1.936653297E-3	-1.519077954E-3
14.89	4.025252906E-4	-1.632087176E-3	7.604155902E-4
14.9	3.283775834E-4	-1.368365770E-3	-2.867010454E-4
14.91	1.112136395E-3	-9.223423519E-4	-1.064209265E-3
14.92	-6.131950913E-4	-5.911924394E-4	-8.124172676E-4
14.93	-2.555074960E-4	-1.107711035E-3	-2.984668988E-4
14.94	3.092081878E-4	-1.199713986E-3	-3.073618770E-4
14.950000000000001	5.302759881E-6	-4.348108203E-4	-4.083737741E-4
14.96	-1.308815594E-4	3.683274872E-4	-5.893114924E-4
14.97	-2.307214103E-4	4.911970508E-4	-3.198587749E-4
14.98	-2.091807007E-5	8.564963874E-5	4.563507992E-4
14.99	3.552182062E-4	-6.842041187E-5	5.485369137E-5
15.0	5.270984996E-4	1.151950317E-3	7.433834230E-4
15.01	5.316623790E-4	6.926377326E-4	-4.030572563E-4
15.02	-6.470578218E-4	2.584221027E-4	6.659764201E-4
15.030000000000001	-1.422747604E-4	1.417970331E-3	4.111078579E-4
15.040000000000001	-1.382300188E-4	4.106096778E-4	-1.807467948E-4
15.05	6.019400636E-4	5.167204086E-4	7.857556685E-6
15.06	3.163804650E-4	1.029777204E-3	-5.337573860E-4
15.07	-9.361548424E-5	1.316888279E-3	-5.192639008E-4
15.08	2.453370607E-4	1.306746009E-3	7.628699274E-6
15.09	3.665951683E-4	1.239311963E-3	-1.799327507E-4
15.1	1.580582613E-4	1.472206800E-3	-5.369271312E-4
15.11	2.113391028E-4	1.550805523E-3	-2.924020675E-4
15.120000000000001	4.921200197E-4	9.891631626E-4	1.823152806E-4
15.13	-4.825009490E-5	1.093090180E-3	-2.453077725E-5
15.14	1.579087674E-4	1.236426325E-3	3.255978308E-4
15.15	-7.314271270E-4	7.881286194E-4	3.709630194E-4
15.16	-1.029061477E-3	1.431830576E-3	-4.197953429E-4
15.17	-1.317986423E-3	2.137520151E-3	-7.417161865E-4
15.18	-2.363708920E-4	1.763275424E-3	2.164134550E-4
15.19	6.384751698E-5	2.022656482E-3	5.473402195E-4
15.200000000000001	3.550224614E-4	2.092786483E-3	-4.548553540E-4
15.21	2.402174941E-4	1.380338622E-3	-1.044106295E-4
15.22	1.640460677E-4	5.863257093E-4	1.771337065E-4
15.23	3.270289507E-5	5.883853881E-4	-2.591236290E-4
15.24	-3.911219790E-4	6.086373208E-4	-7.106277154E-4
15.25	-6.092513413E-5	1.678226449E-4	-1.005699064E-3
15.26	2.422085922E-4	9.552565268E-4	-3.572590446E-4
15.27	-4.482627530E-4	1.693930948E-3	8.126382354E-4
15.280000000000001	-9.914700758E-5	8.820224164E-4	2.333205196E-4
15.290000000000001	-5.807671238E-4	9.842953513E-4	-6.966412180E-4
15.3	-6.432267333E-4	1.569079421E-4	-7.906657308E-4
15.31	3.485983615E-4	1.535786843E-3	5.639759338E-4
15.32	4.171428822E-4	2.814047833E-4	3.832826628E-4
15.33	6.301039657E-4	4.714141001E-7	3.413481572E-4
15.34	6.200704527E-4	5.972762478E-4	2.761473875E-4
15.35	6.691097999E-4	8.871786653E-4	2.835057136E-4
15.36	7.397906050E-5	4.872615123E-4	-1.955709282E-4
15.370000000000001	-1.017889246E-4	-1.027000389E-3	-6.690006696E-4
15.38	3.067594219E-4	-1.682824000E-3	-5.818702564E-4
15.39	5.693722851E-4	-4.661346893E-4	-2.545427639E-4
15.4	7.734858276E-4	8.197142561E-5	-3.354506747E-5
15.41	1.174815293E-3	-6.879870199E-4	5.467772991E-4
15.42	1.106954768E-3	-1.860075026E-3	-2.477674710E-4
15.43	8.017626958E-5	-1.337475120E-3	-1.137687469E-4
15.44	5.677611658E-4	-1.745081654E-3	-8.303335089E-4
15.450000000000001	5.290375887E-4	-1.127303026E-3	-2.490999133E-3
15.46	5.638391924E-4	-2.707650158E-3	-1.153411441E-3
15.47	-1.260174995E-3	-2.837376606E-3	-1.265608852E-3
15.48	-2.348653256E-5	-1.321319429E-3	-1.072192434E-3
15.49	-6.192279434E-5	-2.031618142E-4	-5.034386192E-4
15.5	-6.226516150E-4	-9.606918305E-4	-4.429212296E-4
15.51	-4.625810247E-4	-2.378263272E-3	-2.495082962E-4
15.52	-3.237248172E-4	-2.601315048E-3	2.766331857E-4
15.530000000000001	-3.161658798E-4	-1.638740803E-3	-9.158024843E-5
15.540000000000001	8.067725590E-4	-6.710458996E-4	-1.341952821E-3
15.55	1.185779828E-3	-2.017937199E-3	-8.441290576E-4
15.56	4.006228290E-4	-2.250712129E-3	-2.990678698E-4
15.57	-5.173209660E-5	-2.787388022E-3	-8.762133008E-4
15.58	6.956113075E-4	-2.741033845E-3	1.047390849E-4
15.59	-5.219953443E-4	-1.444403946E-3	-3.435694163E-4
15.6	-9.748828476E-4	-1.055840616E-3	-7.028101032E-4
15.610000000000001	-5.469576691E-4	-1.201996929E-3	-1.222423762E-4
15.620000000000001	-3.503584546E-4	-1.366383498E-3	-1.282894277E-4
15.63	7.899448108E-4	-1.140783334E-3	-7.403038776E-4
15.64	1.137602329E-3	-1.035184838E-3	-4.045711725E-4
15.65	6.515682501E-4	-1.669230901E-3	2.254786297E-4
15.66	9.589952826E-4	-1.786187758E-3	4.896428947E-4
15.67	1.198605575E-3	-1.479680240E-3	7.069942472E-4
15.68	2.977310785E-5	-1.977068406E-3	9.478744760E-4
15.69	-4.097325377E-4	-1.085802672E-3	5.409991559E-4
15.700000000000001	-4.616523156E-4	-9.145508350E-4	6.523822179E-4
15.71	-8.031594063E-4	-4.339810275E-4	4.859227091E-4
15.72	-8.418647085E-4	-7.541067587E-4	-3.417296734E-5
15.73	-2.526235128E-5	-1.832118844E-5	-1.750221144E-5
15.74	1.852826942E-4	-1.075391445E-4	7.705910824E-4
15.75	1.474246940E-5	1.590591425E-4	-4.075127318E-4
15.76	-2.632080563E-4	6.053468144E-4	-1.369848794E-3
15.77	-1.111018247E-4	9.282517139E-4	-1.333993010E-3
15.780000000000001	8.197582992E-4	1.223425383E-3	-8.889415273E-4
15.790000000000001	5.065817016E-4	1.222141395E-3	-2.372010824E-4
15.8	-5.085949692E-4	1.333522584E-3	2.233695003E-4
15.81	4.999674194E-4	1.873657949E-3	-4.011755222E-4
15.82	1.113364609E-4	1.153610660E-3	-1.389027159E-3
15.83	-8.875162252E-4	1.913910322E-3	-9.668743861E-4
15.84	4.563852805E-5	1.991347202E-3	-3.887466622E-4
15.85	1.133197809E-4	1.342446323E-3	1.177321386E-4
15.860000000000001	-6.191455372E-5	2.758926544E-3	-2.879839986E-4
15.870000000000001	-5.860496389E-4	1.824352964E-3	4.482761924E-4
15.88	-1.024074552E-3	1.239374642E-3	5.119796841E-4
15.89	-1.600647585E-4	1.603640221E-3	-4.256780470E-4
15.9	-1.909390437E-4	1.596148246E-3	4.652463600E-4
15.91	-4.534925663E-4	1.032786261E-3	4.538419888E-4
15.92	-1.040916205E-4	5.328582834E-4	-1.659378856E-4
15.93	-1.027213984E-4	8.643361449E-4	7.858205040E-5
15.94	-7.150126223E-4	1.274650327E-3	-1.690040306E-4
15.950000000000001	-8.147530480E-4	8.849383435E-4	-4.103109079E-4
15.96	-9.250518072E-4	1.130180578E-3	-4.880224699E-4
15.97	-6.086254758E-4	2.067642300E-3	-1.083837916E-4
15.98	3.673718027E-4	1.673501942E-3	-5.352189478E-4
15.99	7.694862239E-5	7.123626955E-4	-7.858973592E-4
16.0	3.098631124E-5	6.994609280E-4	-8.173745100E-4
16.01	8.672324195E-4	1.253285353E-3	-1.152726274E-4
16.02	4.478095514E-4	8.582103347E-4	-1.400273844E-3
16.03	4.541516826E-4	5.220880275E-4	-6.698026520E-4
16.04	1.855398272E-4	8.742279801E-4	3.426165556E-5
16.05	-3.046695844E-4	3.000937044E-4	-5.359309267E-4
16.06	-5.126118732E-5	8.227206030E-5	-9.103639718E-4
16.07	4.393727500E-4	4.098313237E-4	-5.405343392E-4
16.080000000000002	1.944597436E-4	7.658603182E-5	-3.345896861E-4
16.09	-4.000984556E-4	-7.047571540E-4	-6.603575588E-4
16.1	-5.202599713E-4	-4.613363341E-4	-9.246048750E-4
16.11	8.137893367E-4	-5.630388261E-4	-1.076361979E-3
16.12	5.916208333E-4	-5.395131899E-4	4.988782434E-4
16.13	4.848640005E-4	-4.338111048E-4	5.368266992E-4
16.14	-5.198796316E-5	-2.044220211E-4	4.421690863E-6
16.15	-1.031335110E-4	-5.400598467E-4	9.640882022E-6
16.16	7.838133475E-4	-1.068090805E-3	1.043598951E-4
16.17	9.964988591E-4	-1.100957071E-3	-2.420727719E-4
16.18	7.998370164E-5	-7.058490845E-4	-4.044459701E-4
16.19	-1.381005982E-4	-6.938377319E-4	3.609701746E-4
16.2	7.681019489E-4	-1.629905274E-3	-1.263885397E-4
16.21	7.873827324E-4	-1.527873369E-3	-7.645284569E-4
16.22	1.317063455E-3	-1.778525618E-3	-9.725942905E-4
16.23	4.511343922E-4	-2.912281556E-3	-8.928116998E-4
16.240000000000002	1.119464227E-3	-1.302289540E-3	-5.323877420E-4
16.25	3.482777184E-4	-2.360909203E-3	-4.891545646E-4
16.26	-1.938968145E-4	-1.420901954E-3	-4.822197841E-4
16.27	-9.634946419E-4	-9.956500085E-4	-6.209792850E-4
16.28	-8.029964247E-4	-1.541103850E-4	-2.133970105E-4
16.29	-5.955796235E-4	-1.756593439E-4	-3.064491504E-4
16.3	-3.488741918E-4	-5.923420511E-4	-7.368849195E-4
16.31	4.108875706E-5	-2.807723199E-4	-1.082639892E-3
16.32	-2.717402740E-4	3.369808028E-5	-1.472592280E-3
16.330000000000002	-3.832482495E-4	-2.001251817E-4	-5.389028356E-4
16.34	3.704481295E-5	-1.771009684E-3	4.912291872E-4
16.35	7.604949305E-4	-1.788589477E-3	-7.660404261E-4
16.36	1.411962490E-3	-2.500835188E-3	-4.100588173E-4
16.37	-1.392439752E-4	-1.429178674E-3	-7.580910740E-4
16.38	3.556073002E-4	-6.548712202E-5	-1.675778087E-3
16.39	1.618859828E-4	-6.256990617E-4	-6.453137540E-4
16.4	-2.615496910E-4	-5.066658303E-4	-8.343434452E-4
16.41	-1.231942167E-3	-2.293926292E-4	-1.198582783E-3
16.42	-6.002323038E-4	-6.706209230E-4	-7.725407783E-4
16.43	4.556919642E-4	-1.358674149E-3	1.052754235E-4
16.44	2.559032123E-4	-1.455945340E-3	6.134535932E-4
16.45	3.002259336E-4	-1.330383970E-3	1.305269278E-4
16.46	5.899396719E-4	-1.196986223E-3	-7.200701019E-4
16.47	5.801388684E-4	-6.790163991E-4	-9.098565938E-4
16.48	3.829209881E-4	-6.675600698E-4	-2.761113089E-4
16.490000000000002	4.614555569E-4	-2.634696751E-4	-1.377636774E-3
16.5	-4.335567104E-4	-7.057629256E-5	-2.061227456E-3
16.51	-7.044953024E-4	5.219574568E-4	-4.241509028E-4
16.52	-5.474584604E-4	1.622159053E-3	1.766861976E-5
16.53	-9.992785445E-5	9.303006774E-4	-9.959438125E-4
16.54	7.319786125E-5	8.888444332E-4	-1.494403268E-3
16.55	-5.183350569E-4	8.228703847E-4	-6.009788015E-5
16.56	1.797367493E-5	9.842642991E-4	3.577157668E-4
16.57	1.735044221E-4	1.301795991E-3	-6.607014357E-4
16.580000000000002	-3.128030378E-4	1.116444300E-3	-1.387052900E-3
16.59	7.762540327E-6	1.198481231E-3	-1.116489125E-3
16.6	5.328418402E-4	2.114360074E-3	-3.448760963E-4
16.61	-1.084856127E-3	8.845122760E-4	8.610470930E-4
16.62	-1.754208593E-3	5.220260065E-4	-5.353665519E-4
16.63	-2.334331839E-3	1.251496725E-3	2.035906351E-4
16.64	3.928069300E-5	1.997162219E-3	4.019040933E-4
16.65	-6.417679794E-5	1.886508078E-3	2.705705621E-4
16.66	-5.044532987E-4	2.288430679E-3	1.402882517E-3
16.67	5.321950732E-4	1.559940872E-3	1.185795184E-3
16.68	8.582891110E-4	8.304489472E-4	5.839770701E-4
16.69	8.846759586E-4	1.370008038E-3	-1.253076744E-3
16.7	1.090844135E-3	1.332952531E-3	-1.462045840E-3
16.71	1.348942968E-3	1.042557928E-3	-8.301846759E-4
16.72	6.606723790E-4	1.050092152E-3	-9.293051988E-6
16.73	-6.109101961E-4	1.212440565E-3	1.628905785E-3
16.740000000000002	-9.757384707E-4	2.122671804E-3	1.043888350E-3
16.75	-1.026220787E-3	1.690212700E-3	-3.662248436E-4
16.76	-5.064237103E-4	7.626276726E-4	-3.012058668E-4
16.77	-1.094519044E-3	1.832603384E-3	-5.444739494E-6
16.78	3.613804971E-4	2.123026196E-3	-2.477389425E-4
16.79	-8.610641606E-4	5.836814840E-4	-3.589528551E-4
16.8	5.409310874E-4	3.134850553E-4	-4.862508928E-6
16.81	1.008037033E-3	-2.298899372E-4	-4.658879677E-4
16.82	8.306157332E-4	1.308073916E-4	-1.066631647E-3
16.830000000000002	9.301725607E-4	-5.762440631E-4	-5.524325402E-4
16.84	2.449509995E-4	2.041644247E-4	-5.936687608E-4
16.85	-4.392759996E-4	5.799623268E-4	-1.103378462E-3
16.86	-1.783908700E-4	2.106756739E-4	-7.876834946E-4
16.87	2.328304159E-4	9.220784411E-5	3.324537000E-4
16.88	-1.025065234E-4	-2.722699967E-4	5.641126640E-4
16.89	4.087666796E-4	-4.478408239E-4	-4.856982591E-4
16.9	2.989874209E-4	3.560127561E-4	-2.798968068E-4
16.91	1.043629215E-3	-6.444112347E-4	-7.813426393E-4
16.92	2.429517266E-4	-4.032623455E-4	1.147034244E-4
16.93	1.200158906E-3	-1.173190259E-3	-7.082350943E-4
16.94	1.942142991E-3	-9.410841273E-4	-5.309075507E-4
16.95	-2.494251235E-4	-1.230250377E-3	-1.479519717E-4
16.96	-1.433462358E-4	-1.666973488E-3	4.523018028E-4
16.97	-9.424641534E-5	-2.323176148E-3	-1.530436293E-4
16.98	-4.172159347E-4	-2.096193063E-3	-2.950999398E-4
16.990000000000002	-3.381557533E-4	-1.534427268E-3	5.736970269E-4
17.0	-5.835573247E-4	-1.766669348E-3	5.020370047E-4
17.01	-9.207005231E-4	-1.316796753E-3	-6.835705002E-4
17.02	1.340353589E-4	-8.423182032E-4	-4.621981832E-4
17.03	8.983077672E-4	-2.209465765E-3	3.353174757E-4
17.04	8.530825152E-4	-1.810755993E-3	1.063798023E-4
17.05	9.048152399E-4	-1.867083032E-3	1.395414828E-4
17.06	5.519588982E-4	-1.970100896E-3	5.022305399E-4
17.07	-6.140400566E-4	-1.535471862E-3	-3.800129674E-4
17.080000000000002	4.017845719E-4	-7.856382262E-4	-3.618873543E-4
17.09	-2.667948368E-4	-8.957716930E-4	-6.540531126E-4
17.1	-5.217061652E-4	-9.007756782E-4	-1.142373808E-4
17.11	5.393385992E-4	-3.670218040E-4	-2.441853162E-4
17.12	6.092522551E-4	-3.855968553E-4	2.361132543E-4
17.13	-1.504526922E-5	-1.430762076E-3	1.683227437E-4
17.14	2.068583609E-4	-2.034037258E-3	-8.716157651E-4
17.150000000000002	7.995104639E-4	-1.455814782E-3	-1.274940062E-3
17.16	4.777822138E-4	-8.570902678E-4	-1.576036016E-4
17.17	6.864681280E-4	-2.816918043E-4	6.307944253E-4
17.18	2.756744256E-4	-5.728576857E-4	-1.889549793E-4
17.19	-2.261668656E-4	-2.963240073E-5	-7.642402315E-4
17.2	-5.761108752E-4	6.078504262E-4	6.039572538E-4
17.21	-9.099411344E-4	2.573356935E-4	-1.048757859E-4
17.22	-5.303423844E-4	-4.771088305E-4	-2.698543293E-4
17.23	-2.128932733E-4	-1.388611717E-4	3.102223911E-4
17.240000000000002	-2.605718657E-4	5.457192146E-4	3.920640810E-5
17.25	2.448234290E-4	1.033903754E-3	-5.900192791E-4
17.26	1.014445959E-3	1.614406382E-3	1.340643659E-4
17.27	-3.820562753E-5	5.963019870E-4	4.161626476E-4
17.28	7.696363975E-4	9.799794942E-4	-5.970747290E-4
17.29	7.891924766E-4	1.845158600E-3	-1.112969294E-3
17.3	5.134565097E-4	9.074502339E-4	-2.317649909E-4
17.31	-1.441931954E-3	3.417402692E-4	-1.815539449E-4
17.32	-5.992845638E-4	1.733521095E-3	1.063174462E-4
17.330000000000002	-9.767871501E-4	1.505175522E-3	-3.530780838E-4
17.34	-4.093824827E-4	1.233703605E-3	2.637001509E-4
17.35	-1.881272755E-4	1.570107595E-3	4.569897189E-5
17.36	1.327547641E-4	1.537670825E-3	1.247914961E-4
17.37	2.663788242E-4	1.390545181E-3	-6.410211724E-5
17.38	3.572059816E-4	1.938442471E-3	-1.058591995E-3
17.39	9.186729456E-4	2.473640290E-3	-1.395616534E-3
17.400000000000002	-2.394296232E-4	2.136357223E-3	-5.683049575E-4
17.41	5.489343663E-4	2.342014720E-3	4.784876433E-3
17.42	1.175112863E-3	1.366426601E-3	2.099622262E-3
17.43	-5.812098804E-4	1.044759333E-3	-2.002389427E-3
17.44	-9.879919196E-4	1.051381621E-3	-6.259661764E-4
17.45	-1.955625103E-3	1.257810214E-3	-1.286343951E-3
17.46	-3.781570646E-4	8.216272634E-4	1.987126647E-3
17.47	1.813602857E-4	1.328502910E-3	1.285685544E-3
17.48	-1.444157643E-4	1.067805955E-3	-3.801661587E-4
17.490000000000002	-3.677434091E-4	1.104313090E-3	-5.472617704E-4
17.5	-6.656594067E-4	1.167681651E-3	2.703423295E-4
17.51	3.888573200E-5	8.777410171E-4	1.704146671E-4
17.52	-2.071912084E-4	1.111413164E-3	-5.419597932E-4
17.53	-1.278255428E-3	1.711745312E-3	-1.077080646E-3
17.54	-1.040288088E-4	1.766024093E-3	-1.012580704E-3
17.55	4.955417903E-5	1.645997629E-3	4.392369981E-4
17.56	2.660568971E-4	5.449346839E-4	3.294599832E-4
17.57	-8.284529524E-6	-9.156944976E-4	1.468914896E-4
17.580000000000002	4.811771342E-4	-1.923879075E-4	-1.058635203E-3
17.59	-1.203068484E-3	7.326537399E-5	-5.979231471E-4
17.6	-9.191265167E-6	4.634760228E-4	-1.254465571E-3
17.61	-1.326761677E-4	-5.413158954E-4	-5.738106900E-4
17.62	-1.886133029E-4	-4.036565295E-4	-2.494088319E-4
17.63	1.844707465E-4	-1.874498092E-5	6.752757328E-6
17.64	1.678598906E-4	4.221033159E-4	-4.205805228E-4
17.650000000000002	4.577162209E-4	1.162128001E-4	-5.632619366E-4
17.66	4.393981935E-4	-8.459560087E-4	1.177808767E-4
17.67	-6.249304515E-4	-1.144965038E-3	2.689820270E-4
17.68	-3.743400447E-4	-1.530477856E-3	3.352588357E-4
17.69	1.656561478E-4	-1.749465333E-3	2.310314978E-4
17.7	7.493239456E-4	-1.578765136E-3	-9.923577300E-4
17.71	6.577506927E-4	-1.067113632E-3	4.960979963E-4
17.72	-1.090463480E-3	-7.653386146E-4	4.705685526E-4
17.73	1.015753500E-3	-5.887453595E-4	-1.776840946E-4
17.740000000000002	8.892003469E-4	-1.805923487E-3	-7.943062145E-4
17.75	2.046660536E-4	-1.555105514E-3	-1.007183501E-4
17.76	6.031215706E-4	-1.692793461E-3	-8.213298920E-4
17.77	5.004461687E-4	-1.663954129E-3	-1.155390671E-3
17.78	-2.079043371E-4	-1.505528192E-3	-5.167812697E-4
17.79	1.465919639E-4	-1.197176807E-3	-2.263356596E-5
17.8	5.802907396E-4	-9.521248157E-4	4.487798303E-4
17.81	-1.709845707E-4	-1.136710454E-3	6.152904958E-4
17.82	-2.389048356E-4	-2.884690175E-4	1.408098613E-4
17.830000000000002	3.758528619E-4	-7.799247184E-4	-3.534212870E-5
17.84	5.084070319E-4	-1.194706232E-3	-8.290919405E-4
17.85	8.593743240E-4	-1.376338843E-3	4.848736674E-4
17.86	4.489361425E-4	-1.304572684E-3	5.067149556E-4
17.87	-2.846881579E-4	-1.642745924E-3	6.426994736E-5
17.88	-5.305014185E-4	-1.466470237E-3	6.908164176E-4
17.89	-4.200689190E-4	-6.500318451E-4	1.285863833E-3
17.900000000000002	4.878599546E-4	-4.314147512E-4	3.665078490E-4
17.91	8.871377434E-4	-5.774040919E-4	-1.576692543E-4
17.92	9.095368723E-5	-5.025141860E-4	-4.729055388E-4
17.93	-9.130721302E-5	-3.183515775E-4	-5.922516942E-4
17.94	6.856401256E-4	-2.949879582E-4	-2.047734559E-4
17.95	5.261064920E-4	-2.435777861E-4	1.638822785E-4
17.96	4.998415467E-4	-4.938674498E-5	3.612299474E-4
17.97	8.322924457E-4	3.341206587E-4	-1.211463004E-4
17.98	1.012283017E-3	3.587179289E-4	3.113654779E-4
17.990000000000002	-2.024501327E-4	-5.668062540E-5	9.904915113E-5
18.0	7.482831871E-4	1.260155831E-3	-9.104472250E-4
18.01	6.700664574E-4	5.884567021E-4	-6.862528250E-4
18.02	-3.643845886E-4	8.159088254E-4	-7.025710859E-4
18.03	-9.941217635E-4	5.842668142E-4	-1.021439960E-3
18.04	-4.274455449E-4	4.344810766E-4	-7.229633037E-4
18.05	-3.723672679E-4	9.808350239E-4	-2.095007209E-4
18.06	-4.563931965E-4	1.296582162E-3	-6.048306672E-4
18.07	-9.617559241E-5	4.716539517E-4	-1.004801916E-3
18.080000000000002	-1.880646020E-4	4.821388557E-4	-1.162787718E-4
18.09	-1.964552030E-4	1.306945286E-3	-7.780048922E-5
18.1	-4.355827961E-4	8.944987782E-4	-4.805368973E-4
18.11	-2.236727059E-4	1.292836608E-3	1.413407612E-4
18.12	1.966950306E-4	1.356554009E-3	7.064595406E-4
18.13	-2.659010196E-4	1.873071883E-3	-3.558856100E-4
18.14	-8.980882501E-4	2.073855717E-3	-3.728286681E-4
18.150000000000002	2.989937364E-5	2.151930121E-3	-3.752767392E-4
18.16	-1.831134603E-4	1.458621207E-3	2.078922786E-4
18.17	-1.896532331E-4	1.055557883E-3	-3.751951581E-4
18.18	4.284710985E-4	1.803227283E-3	-3.391001781E-4
18.19	-3.095786452E-4	1.428251150E-3	-4.552853232E-4
18.2	-5.986783606E-4	1.115228180E-3	-4.333110932E-4
18.21	2.668057941E-5	1.202554015E-3	3.829789990E-4
18.22	3.427442184E-5	1.245099582E-3	4.710372339E-4
18.23	-5.153002723E-4	1.438048811E-3	-6.921974892E-4
18.240000000000002	1.678174340E-5	5.853388464E-5	-5.443523357E-4
18.25	-3.895030326E-4	-1.532435157E-4	-5.032797236E-4
18.26	-6.623925038E-4	3.168164476E-4	-4.556858396E-4
18.27	-6.391544478E-4	5.481900322E-4	-4.483401610E-4
18.28	1.320018390E-3	8.253690041E-4	1.062418833E-3
18.29	6.128395584E-4	1.252740834E-3	-2.366560244E-4
18.3	-3.982400533E-4	6.267066538E-4	8.677904484E-5
18.31	2.099282701E-4	-6.472452752E-6	9.766761790E-4
18.32	4.228918335E-4	-5.175185073E-4	3.809126998E-4
18.330000000000002	5.453742725E-4	-7.843407544E-4	8.564108369E-5
18.34	5.465544933E-4	-4.425193374E-4	1.807837655E-4
18.35	-1.908032240E-5	1.797028953E-4	2.187163378E-4
18.36	-2.030792556E-4	1.133033084E-4	2.854632203E-4
18.37	-1.622078150E-4	-3.271564333E-4	-3.012215497E-4
18.38	-3.210172167E-4	-9.072481811E-4	1.024368171E-4
18.39	3.479528838E-4	-7.184006301E-4	8.427208045E-4
18.400000000000002	7.177544372E-4	3.339076130E-4	-3.454678781E-4
18.41	4.169260656E-4	-1.774734007E-3	-6.603938192E-4
18.42	4.733711412E-4	-2.208746894E-4	-3.709967499E-4
18.43	-1.785382411E-5	-3.327353204E-4	-6.920284983E-5
18.44	1.540487813E-4	-8.862086979E-4	4.026660929E-4
18.45	3.675872642E-4	-8.142308429E-4	2.452180542E-4
18.46	-7.092103256E-7	-9.049699090E-4	4.159422841E-4
18.47	-4.657772578E-5	-7.336280259E-4	4.339956576E-4
18.48	1.178946322E-4	-9.126773813E-4	3.270118142E-5
18.490000000000002	-2.318015163E-4	-1.104900030E-3	-2.362857117E-4
18.5	-2.209422713E-4	-1.062609474E-3	-1.181027278E-4
18.51	7.492280128E-4	-1.648165450E-3	2.576963150E-4
18.52	2.838202020E-4	-1.896650267E-3	6.127521373E-4
18.53	2.031987585E-4	-1.582724015E-3	1.014813637E-3
18.54	-5.724767230E-4	-2.050621659E-3	-6.500211359E-4
18.55	-2.747065588E-4	3.875114874E-4	-6.433917699E-4
18.56	-2.122709955E-4	-2.491487004E-4	3.864945473E-5
18.57	-2.074323622E-4	-9.087527355E-4	-4.452314386E-4
18.580000000000002	-1.527304085E-4	-9.518411141E-4	2.156087305E-4
18.59	4.823488135E-5	-1.192591181E-3	-5.650419108E-4
18.6	-3.584023910E-4	-1.979725751E-4	-2.115514872E-4
18.61	-6.355512968E-4	-6.627295134E-4	5.650190066E-4
18.62	-1.888081672E-4	-2.066774633E-3	6.202121688E-4
18.63	3.826622109E-4	-2.193953612E-3	-2.143023648E-5
18.64	3.865783075E-4	-1.534529582E-3	-8.143152037E-4
18.650000000000002	5.889150619E-4	-4.889574036E-4	-7.294111880E-4
18.66	1.191689590E-3	4.485940558E-5	6.975430399E-4
18.67	2.111533850E-4	-9.606739740E-4	5.563400217E-5
18.68	3.122557905E-4	-1.067909660E-3	9.887928339E-4
18.69	-1.355576536E-4	-4.750149723E-4	7.843884103E-4
18.7	2.707534227E-6	3.476679208E-4	1.790321712E-4
18.71	-2.640779149E-4	2.833065322E-4	-4.590259616E-4
18.72	-7.166975333E-4	6.096124505E-6	-8.837593464E-4
18.73	-1.979019174E-4	1.625683715E-4	-1.090966838E-3
18.740000000000002	3.953122727E-4	3.040389438E-4	-1.135621639E-3
18.75	-3.637554327E-4	1.056058944E-3	-1.822915881E-4
18.76	7.724159179E-4	6.882446437E-4	7.569885931E-5
18.77	1.855672523E-4	7.283123775E-5	2.115302331E-4
18.78	1.047969064E-3	1.001968567E-3	3.962151894E-4
18.79	3.385371916E-5	4.901807941E-4	3.578843178E-5
18.8	-4.048076275E-4	1.556191365E-3	-9.536540455E-4
18.81	2.506161526E-4	1.234436731E-3	-7.266215718E-4
18.82	-1.296242330E-4	1.716869046E-3	4.355747597E-4
18.830000000000002	-6.654635002E-4	1.555841516E-3	5.653754104E-4
18.84	-9.164982292E-4	1.357433185E-3	-1.552962281E-4
18.85	-1.056920994E-3	1.600448938E-3	-5.541919843E-4
18.86	-8.661975407E-4	1.302712399E-3	-9.898034968E-4
18.87	9.292715793E-5	8.785429479E-4	-1.058146688E-3
18.88	9.615921746E-4	9.687380080E-4	7.613041956E-5
18.89	9.728360567E-4	5.321082005E-4	2.774680828E-4
18.900000000000002	4.054115323E-4	1.934351517E-3	-2.865773780E-4
18.91	-3.570675594E-4	1.936663529E-3	5.030868064E-4
18.92	9.323037617E-5	2.200598661E-3	-2.773982137E-4
18.93	-7.220018557E-4	1.344242124E-3	-2.741059607E-4
18.94	-1.736156581E-5	8.869083014E-4	-2.205318015E-4
18.95	2.937750268E-4	1.403488505E-3	1.363779254E-4
18.96	9.123433372E-5	2.347757623E-3	5.627607468E-4
18.97	-2.787755546E-4	2.072098821E-3	1.069704561E-3
18.98	1.680122475E-4	1.608163102E-3	3.909634194E-4
18.990000000000002	5.655553345E-4	9.906125664E-4	1.030265613E-4
19.0	6.576770650E-4	5.534246138E-4	4.446409040E-5
19.01	1.723617409E-4	9.716967206E-4	-3.296431244E-4
19.02	-7.100048101E-4	1.410081964E-3	-3.707417166E-4
19.03	1.137776428E-4	1.300890992E-3	-1.733099246E-3
19.04	-1.114219419E-3	-1.255507391E-4	-2.731082061E-3
19.05	3.671012468E-4	9.554949264E-4	3.210857130E-4
19.06	1.192882807E-3	1.253732194E-3	1.540666572E-4
19.07	-2.935402639E-5	1.354008932E-3	-1.222354025E-4
19.080000000000002	7.614095227E-5	6.737781106E-6	-1.392177296E-3
19.09	2.735538071E-4	-2.727730724E-4	-5.155356745E-4
19.1	-7.619079589E-4	-1.332913059E-3	-6.057915196E-4
19.11	-5.254380418E-4	-8.739735195E-4	-8.322421497E-4
19.12	-1.091833829E-4	-6.711268756E-4	-6.084562485E-4
19.13	1.785233948E-4	-1.025381793E-3	-3.285429159E-4
19.14	2.272770049E-4	-7.625039268E-4	2.134240938E-5
19.150000000000002	-7.539134451E-4	-6.675340136E-4	7.030150588E-4
19.16	-7.200868845E-4	-1.958714983E-3	9.738652664E-4
19.17	-6.623806859E-4	-1.346650794E-3	-7.687312215E-4
19.18	5.181335415E-4	-9.539525429E-4	-1.316401150E-4
19.19	1.013243653E-3	-1.081602062E-3	-2.387575529E-4
19.2	1.204456165E-3	-9.821569813E-4	-1.268325483E-5
19.21	7.887183858E-5	-1.072121552E-3	1.125348425E-3
19.22	2.314588806E-4	-1.500763388E-3	7.759414851E-4
19.23	8.649692171E-4	-1.708040037E-3	-5.093947255E-4
19.240000000000002	-2.707071557E-5	-1.386471413E-3	-4.700441570E-4
19.25	-8.122518436E-4	-1.071922466E-3	4.067835521E-4
19.26	-2.909496404E-4	-1.019275425E-3	1.568802901E-4
19.27	-1.103969308E-3	-6.359447930E-4	1.367084496E-4
19.28	8.603230310E-4	-9.306158656E-4	-5.242905421E-4
19.29	-7.430560581E-4	-6.807082028E-4	-4.320954009E-4
19.3	-2.186973595E-4	-1.660581001E-3	-4.716334829E-4
19.31	-7.360987295E-4	-1.429913946E-3	2.712817114E-4
19.32	-8.299626664E-4	-7.934176379E-4	1.153796667E-4
19.330000000000002	4.082652323E-4	-9.494457702E-4	-2.929612115E-4
19.34	3.607599469E-4	-8.541789822E-4	1.434626531E-4
19.35	1.708016876E-4	-6.426819793E-4	-2.060060927E-4
19.36	5.359308489E-5	-6.860422848E-4	-8.367128555E-4
19.37	-3.711509810E-4	-1.028933939E-3	6.015593111E-5
19.38	-2.860093177E-4	-7.703573930E-4	6.702722626E-4
19.39	-4.387386274E-4	6.175102231E-5	-4.388160436E-5
19.400000000000002	-5.317306397E-4	-2.397595619E-5	-1.058157954E-4
19.41	1.542164526E-4	-6.765409066E-4	-1.865947183E-4
19.42	2.248433658E-4	-1.253675569E-3	-2.425737390E-4
19.43	-8.280592466E-4	-3.937585093E-4	2.531308085E-4
19.44	7.419276334E-4	-9.138619491E-4	5.990582709E-4
19.45	-7.722253936E-4	-7.601795642E-4	4.034382541E-4
19.46	-3.638620257E-4	-4.983045279E-4	-7.997181635E-5
19.47	1.950965539E-4	1.812396543E-4	-4.865852916E-6
19.48	5.736166597E-5	-1.875058797E-4	3.789337898E-4
19.490000000000002	-1.155664307E-3	3.612386227E-4	5.362115938E-4
19.5	-9.986012845E-4	6.249254773E-4	8.144713898E-4
19.51	-3.052698977E-4	3.121714043E-4	9.236264133E-4
19.52	-2.983189293E-4	2.840250102E-4	5.310576558E-4
19.53	2.102146769E-4	3.592330761E-4	2.277997543E-4
19.54	2.009285653E-4	1.470480124E-4	2.199888094E-4
19.55	-6.028631185E-4	-1.628067938E-4	2.473179878E-4
19.56	-2.702656226E-4	1.376154349E-3	3.111303248E-4
19.57	9.011760042E-4	9.215580919E-4	4.996328929E-4
19.580000000000002	-5.712606557E-5	5.677528865E-4	2.119320780E-4
19.59	-1.538893211E-4	9.531936584E-4	-3.774615093E-4
19.6	7.993112663E-4	1.057800262E-3	-1.568581184E-4
19.61	3.424089040E-4	1.483119579E-3	-3.722084981E-5
19.62	5.915529591E-4	1.990309714E-3	-7.505707901E-5
19.63	5.001107361E-4	1.690172662E-3	-1.535014247E-4
19.64	-8.239236983E-4	8.264768926E-4	3.779739594E-5
19.650000000000002	-7.165302143E-4	8.869198014E-4	-5.085235532E-4
19.66	-1.675820316E-4	1.227434050E-3	-1.683598318E-4
19.67	-1.825222025E-4	1.430742298E-3	5.240041794E-4
19.68	-1.847518452E-5	1.547809593E-3	-4.843301400E-5
19.69	7.512030617E-4	6.650673115E-4	-5.646189288E-4
19.7	1.746669038E-3	3.800687400E-4	3.757003374E-4
19.71	-2.314242030E-4	1.545544732E-3	-4.028063863E-4
19.72	8.724849178E-4	7.617611075E-4	2.092314778E-4
19.73	-4.490620235E-4	5.166555598E-4	-8.988752671E-4
19.740000000000002	-2.599589513E-4	1.060370647E-3	-1.514072678E-4
19.75	-4.044346151E-4	2.346228377E-3	-5.605077691E-4
19.76	2.064997781E-4	1.391380044E-3	-6.508149539E-4
19.77	4.234990554E-4	1.011598027E-3	-9.851864678E-4
19.78	3.402022572E-4	1.089969708E-3	-1.000496642E-3
19.79	-5.952126443E-5	9.752039907E-4	-2.094693009E-4
19.8	-8.762831146E-4	7.668372775E-4	-1.538245888E-4
19.81	-9.036632038E-4	3.416897104E-4	-1.500514659E-3
19.82	7.448933856E-4	-1.546466449E-4	-5.710451275E-4
19.830000000000002	3.692573760E-4	7.844415475E-5	3.735234032E-4
19.84	1.227591682E-5	-4.130443695E-4	2.332029914E-4
19.85	-1.233524835E-4	-5.572602851E-4	3.848680667E-4
19.86	-1.241634095E-4	5.922449750E-5	9.389180094E-4
19.87	5.459229979E-4	-1.415453990E-5	-1.203616009E-3
19.88	6.002002772E-4	-9.823766289E-4	2.502452119E-4
19.89	4.019798826E-4	-3.858435596E-4	2.200501835E-4
19.900000000000002	-2.872229264E-4	-9.030218922E-4	1.172089686E-4
19.91	-4.564250354E-4	-9.330975937E-4	-3.391668642E-4
19.92	3.408711485E-4	-4.669442163E-4	-4.121359737E-4
19.93	2.371033235E-4	-9.250196067E-4	-2.507014563E-4
19.94	-4.480371215E-4	-1.551925834E-3	-5.282331538E-4
19.95	-8.063786217E-4	-1.436163493E-3	-9.210688813E-4
19.96	-9.884922201E-4	-8.259346995E-4	-7.701545477E-4
19.97	-5.808358403E-4	-6.886899283E-4	-2.948468221E-4
19.98	1.685212419E-4	-1.585941748E-3	-1.099253940E-3
19.990000000000002	-4.719556945E-4	-1.110955714E-3	-2.683108388E-4
20.0	-3.354711688E-4	-7.158789626E-4	1.432520633E-4
20.01	-6.958423228E-4	-4.330676167E-4	-7.432696592E-5
20.02	1.660801507E-4	-5.596191446E-4	7.368783439E-4
20.03	3.293987847E-4	-5.057627563E-4	-2.244010927E-4
20.04	-2.791875579E-4	-9.375710523E-4	-1.094629740E-3
20.05	-1.758621128E-5	-8.426822301E-4	-3.477248092E-4
20.06	1.096015304E-6	-9.214839302E-4	-1.680688780E-4
20.07	-2.064824425E-4	-1.422292918E-3	-7.362632756E-4
20.080000000000002	-1.604719173E-4	-1.921631238E-3	-6.315112719E-4
20.09	-3.852690838E-4	-2.232347211E-3	-6.681253270E-5
20.1	-1.332167252E-5	-1.965163639E-3	5.116780885E-4
20.11	-5.593726892E-4	-1.185698597E-3	-1.038204595E-4
20.12	4.580702776E-4	-1.182943011E-3	1.790763340E-4
20.13	4.541097808E-4	-1.506113880E-3	3.525272368E-4
20.14	6.468444436E-4	-1.050805949E-3	3.576032001E-4
20.150000000000002	5.331757476E-4	-1.032379110E-3	-2.147966319E-4
20.16	-4.181537058E-4	-1.151894733E-3	-9.579287447E-4
20.17	-4.710472166E-4	-1.452027475E-3	-9.941384000E-4
20.18	5.846315050E-5	-1.244410947E-3	-1.830200628E-4
20.19	-7.054317499E-4	-5.928369079E-5	2.553568258E-4
20.2	5.348320717E-4	-5.324253996E-4	-5.643781403E-4
20.21	4.867338920E-4	4.020626577E-4	-8.856388582E-4
20.22	-1.498981753E-3	1.778457452E-4	-2.027965675E-4
20.23	-3.169259352E-4	7.103763705E-4	9.372169378E-6
20.240000000000002	-3.386842514E-4	1.247706283E-3	-2.687197775E-4
20.25	2.659774417E-5	1.956497993E-3	-2.356366497E-4
20.26	-3.444255115E-4	1.503157116E-3	-7.919747988E-4
20.27	-2.629919749E-4	1.392341643E-3	-5.814634472E-4
20.28	2.709000451E-4	1.555154048E-3	-1.296837090E-4
20.29	2.069176520E-4	1.909248160E-3	-1.569353300E-4
20.3	2.702734300E-4	1.416851125E-3	-6.851314975E-4
20.31	6.528858242E-4	5.840709583E-4	-9.540310488E-4
20.32	3.128232067E-4	1.162305166E-3	-4.385708394E-4
20.330000000000002	5.741304109E-4	1.462175840E-3	3.883103540E-6
20.34	3.575494086E-4	1.366458479E-3	-2.419215292E-4
20.35	3.680321730E-4	4.762351165E-4	3.382473500E-5
20.36	-4.622641746E-4	1.219828107E-3	5.121290192E-4
20.37	-8.677916023E-4	1.213733831E-3	-9.013993901E-4
20.38	-4.158506640E-4	1.217415253E-3	-6.287251462E-4
20.39	-4.732090055E-4	1.209016840E-3	-8.872677206E-4
20.400000000000002	-4.177084659E-4	1.217926895E-3	-1.137023386E-3
20.41	-5.793553838E-4	1.347920312E-3	-4.124056338E-4
20.42	-1.866995044E-3	1.513416911E-3	-7.492643692E-4
20.43	-5.820878842E-4	1.981110565E-3	-3.582952265E-4
20.44	-8.852004377E-4	1.138505785E-3	-1.971055801E-4
20.45	-8.444482132E-4	1.895264693E-3	-3.659780044E-4
20.46	3.603075312E-4	1.293558574E-3	-3.958816586E-4
20.47	-6.575914527E-4	1.128954086E-3	1.651066691E-4
20.48	-7.083923971E-4	6.902928966E-4	-5.791834074E-4
20.490000000000002	1.550674374E-4	1.191251974E-3	-6.066661855E-4
20.5	2.943230421E-6	1.409685603E-3	-1.147304329E-3
20.51	-8.571181267E-5	5.573316193E-4	-1.644851654E-4
20.52	-2.185454962E-4	1.218264637E-5	6.172118047E-4
20.53	-1.093626353E-3	-1.402335962E-6	5.640148057E-4
20.54	-1.167720128E-3	9.302863023E-5	2.311492183E-4
20.55	3.891291138E-4	1.503143656E-4	2.213743683E-4
20.56	6.821082262E-4	3.616665211E-4	4.066560960E-4
20.57	3.306786442E-4	1.156009102E-3	-1.706081291E-4
20.580000000000002	-5.400941922E-4	2.813585371E-4	1.678485736E-3
20.59	2.115602109E-4	5.700908536E-4	-9.786963814E-4
20.6	9.532270526E-4	-5.594372563E-4	-4.583102316E-4
20.61	6.476158882E-4	-1.707707289E-4	3.625930372E-3
20.62	1.110386537E-4	9.665640750E-5	-1.261170601E-3
20.63	-3.357464055E-4	-5.546945259E-4	-5.125887119E-3
20.64	-4.771672788E-4	-4.942169125E-4	-5.304578311E-4
20.650000000000002	-1.095585363E-4	-3.095180411E-4	3.982665493E-4
20.66	2.021842797E-4	-5.331543408E-4	-6.455959749E-4
20.67	1.592484137E-4	-9.133745413E-4	-2.438300032E-3
20.68	4.176166491E-4	-1.221355559E-3	-1.681915669E-3
20.69	6.976765688E-4	-1.705690830E-3	4.952639206E-4
20.7	2.527990536E-4	-2.288497384E-3	-1.034627395E-3
20.71	1.220668034E-3	-1.245111838E-3	-7.576711381E-4
20.72	1.233143482E-3	-1.838676649E-3	1.171589933E-3
20.73	6.313065390E-4	-4.533693083E-4	-7.422831667E-4
20.740000000000002	-2.215084474E-4	-1.391591737E-3	-4.739026274E-4
20.75	-1.165019775E-4	-1.385915726E-3	-5.704623312E-4
20.76	7.809782374E-4	-1.279475910E-3	-9.727595890E-4
20.77	4.898452805E-4	-6.931320790E-4	-8.246426903E-4
20.78	8.770276747E-5	-1.260064203E-3	-5.302989439E-4
20.79	3.317242638E-4	-1.371798338E-3	-4.027510408E-4
20.8	1.515236170E-4	-1.157814539E-3	-6.598259544E-4
20.81	2.320108320E-4	-1.635163213E-3	-7.942153809E-4
20.82	6.554277284E-4	-1.773679877E-3	-2.763766234E-4
20.830000000000002	-6.096036316E-5	-1.110299158E-3	8.956342282E-5
20.84	-2.612537618E-4	-1.369746716E-3	-3.787328787E-4
20.85	1.432401311E-4	-1.255596017E-3	-9.059323123E-4
20.86	-1.488920584E-4	-1.202031403E-3	-7.595437308E-4
20.87	-5.186476660E-4	-5.981811041E-5	-1.049392876E-3
20.88	1.085532402E-4	-1.014335621E-3	1.794117838E-4
20.89	-6.711988175E-4	-1.229634179E-3	-2.052197262E-4
20.900000000000002	-8.400857800E-4	-9.681855686E-4	4.951440124E-4
20.91	1.046715886E-3	-9.420222931E-4	2.558039468E-4
20.92	3.541162884E-4	-4.756288616E-4	-5.077158388E-4
20.93	-4.865268400E-4	-2.047930708E-4	5.969813298E-4
20.94	1.914909732E-4	-3.383576234E-4	6.186786148E-4
20.95	9.812998916E-4	-1.848810331E-4	1.347398685E-5
20.96	3.680817368E-4	-1.694946186E-4	-9.679188241E-5
20.97	-8.167815227E-4	-4.210655186E-4	-8.792273093E-5
20.98	-7.059203706E-4	-2.515412801E-5	-3.114078960E-4
20.990000000000002	-3.050227340E-4	4.365836742E-4	-1.133487827E-4
21.0	-1.232240672E-3	2.620905998E-4	-3.764966949E-4
21.01	6.153711373E-4	-3.831822395E-4	-1.142301215E-3
21.02	1.095796960E-4	-5.761247634E-5	-2.153482988E-4
21.03	8.134057318E-4	-1.351846196E-4	-5.426150411E-4
21.04	8.698508074E-4	6.550498889E-4	3.725509963E-4
21.05	2.183940657E-4	1.609314982E-3	-2.499465686E-4
21.06	5.306807374E-4	8.238200427E-4	-4.894309674E-4
21.07	1.091704389E-3	1.545363157E-3	-6.680807573E-4
21.080000000000002	-9.572362038E-5	1.185867457E-3	-6.457010172E-4
21.09	-1.623956122E-4	1.652151236E-3	-3.858722893E-4
21.1	-9.726126452E-4	1.388796144E-3	-4.785242334E-5
21.11	-2.653767057E-4	6.666876639E-4	-1.021083891E-3
21.12	1.381274828E-6	7.221400116E-4	-7.111949448E-4
21.13	-2.432720753E-4	1.176234320E-3	-9.804438670E-4
21.14	1.585939928E-5	1.412060819E-3	-1.124701676E-3
21.150000000000002	2.202883116E-4	1.072159185E-3	-1.923150099E-4
21.16	4.523987688E-5	9.322590810E-4	-2.534623784E-4
21.17	-7.068000829E-5	1.557391272E-3	-3.969859750E-4
21.18	-8.628131021E-4	1.820309481E-3	-1.951954335E-4
21.19	5.066429908E-5	2.326226007E-3	4.172191146E-4
21.2	-1.664619767E-3	2.326639423E-3	-8.716216985E-4
21.21	1.564366316E-4	1.908506099E-3	-1.148865804E-3
21.22	-5.797714907E-4	1.477908514E-3	-1.281921005E-3
21.23	-5.227314828E-4	1.072805767E-3	-1.195807762E-4
21.240000000000002	3.194304924E-4	1.009090381E-3	7.984634947E-5
21.25	1.758568207E-4	2.580649412E-4	-7.366808643E-5
21.26	-4.084590091E-4	3.998683522E-4	-1.510943922E-5
21.27	3.509660679E-4	1.399691625E-3	-5.919950349E-4
21.28	3.518722045E-4	1.310714755E-3	-6.131352435E-4
21.29	5.982275576E-5	5.234505552E-4	8.185375660E-4
21.3	6.158448220E-4	5.561665238E-4	8.612900380E-4
21.31	7.137195869E-4	1.479498205E-3	-1.788814922E-3
21.32	-6.716025979E-5	1.307520661E-3	-1.188775610E-3
21.330000000000002	-1.048184191E-3	1.134203473E-3	-2.363233478E-3
21.34	-6.480277300E-4	1.088282846E-3	-2.941899109E-3
21.35	-1.898472077E-4	5.929678277E-4	-9.248868162E-5
21.36	-2.352552915E-4	6.185099668E-4	-3.345749959E-3
21.37	7.459913617E-6	1.330800270E-4	-3.382848030E-3
21.38	-1.744627549E-4	-1.609477322E-3	-1.922258587E-4
21.39	2.756928987E-5	-1.495482350E-3	1.306599374E-3
21.400000000000002	1.020366359E-3	-1.705486165E-3	8.270809240E-4
21.41	9.311556666E-4	-1.431708030E-3	5.673248148E-4
21.42	2.214646336E-4	-1.262309188E-3	1.102089079E-3
21.43	-1.834110447E-4	-2.016846659E-3	8.247866438E-4
21.44	2.106949675E-4	-2.153226157E-3	-2.476250390E-4
21.45	1.434717452E-3	-1.786107002E-3	-4.096703425E-4
21.46	1.191392376E-3	-1.442274150E-3	-8.804378881E-5
21.47	1.151270208E-4	-1.328845203E-3	5.249130860E-4
21.48	-3.215285923E-4	-1.061167763E-3	-6.065561683E-4
21.490000000000002	3.699993288E-4	-1.441461155E-3	-2.007227987E-4
21.5	2.571085503E-4	-8.197561795E-4	5.652479683E-4
21.51	2.693769032E-4	-1.092072292E-3	-2.012213135E-4
21.52	1.396597243E-3	-1.803524484E-3	-1.235312945E-3
21.53	1.038117718E-3	-1.687370320E-3	2.065249426E-5
21.54	2.939972044E-4	-1.793724104E-3	-9.186541106E-4
21.55	-3.086686232E-4	-1.233827430E-3	-6.502115249E-4
21.56	-7.559144311E-5	-1.261711170E-3	-4.078609123E-4
21.57	4.623384356E-4	-2.012878012E-3	-9.560099543E-4
21.580000000000002	2.345235656E-4	-2.073945163E-3	-8.873647399E-4
21.59	-3.094399593E-4	-1.275033026E-3	-1.763828621E-4
21.6	4.866093362E-4	-1.023009082E-3	-2.354167745E-4
21.61	3.836789763E-4	-4.122038622E-4	7.734123818E-5
21.62	-2.799843300E-4	-6.136222083E-4	5.050337031E-4
21.63	9.601889875E-4	-1.121653672E-3	-6.349797823E-4
21.64	2.828506326E-4	-1.436672760E-3	1.104611308E-4
21.650000000000002	-5.776561048E-4	-7.993286618E-4	-8.556392448E-4
21.66	-1.056522639E-3	-7.810842915E-5	-4.272413869E-4
21.67	-2.696251003E-4	-5.614312098E-4	-2.013800645E-4
21.68	-3.278407071E-4	-8.050707248E-4	-4.522682092E-4
21.69	-6.151553444E-4	-8.650049090E-4	-5.080904814E-4
21.7	-2.676449349E-5	-6.222223887E-4	-4.799213700E-4
21.71	2.405303702E-4	9.114848330E-5	-4.175858517E-4
21.72	1.164622845E-4	5.439949883E-4	1.240382681E-5
21.73	9.120430361E-4	6.941209944E-4	2.651245377E-4
21.740000000000002	6.540635577E-4	5.508507149E-4	3.669170228E-4
21.75	4.062411621E-4	3.897125539E-4	-1.563969778E-4
21.76	-7.654026839E-4	1.143262164E-3	-9.135191526E-4
21.77	-3.414176949E-5	4.403814859E-4	-6.988268942E-4
21.78	-6.155755473E-5	8.185650921E-4	2.946305258E-4
21.79	-1.157411240E-3	1.207721642E-3	-1.233708783E-4
21.8	-1.498443921E-4	1.276557016E-3	-1.203574864E-3
21.81	-4.798181807E-4	2.329064947E-3	-9.750867760E-4
21.82	-1.843547479E-4	2.749086441E-3	-5.673333233E-4
21.830000000000002	-5.822984793E-4	2.182763059E-3	-4.693081336E-4
21.84	-3.077846395E-4	1.178497280E-3	-1.502561358E-4
21.85	7.694035366E-5	1.035714212E-3	5.070451204E-5
21.86	-2.188171278E-4	1.637575809E-3	-6.295467597E-4
21.87	-1.097333407E-4	1.835162039E-3	-1.148001528E-3
21.88	-2.896833958E-4	2.534684367E-3	3.932044051E-4
21.89	2.695053183E-4	1.737422570E-3	3.505379114E-4
21.900000000000002	-3.665068283E-4	1.460368775E-3	1.447759120E-4
21.91	3.723133710E-4	1.569870551E-3	-3.320986594E-4
21.92	9.423121221E-5	1.988885685E-3	-5.760509043E-4
21.93	2.417483333E-4	1.379356418E-3	-6.801537555E-4
21.94	-8.943674177E-5	7.692749142E-4	-1.133896641E-3
21.95	-6.925753335E-4	1.373611409E-3	-7.543816710E-4
21.96	-3.714271354E-4	1.063509703E-3	-4.365707122E-4
21.97	-1.028557102E-4	6.056629782E-4	2.809668727E-4
21.98	-2.918510703E-4	6.958577222E-4	3.518137301E-4
21.990000000000002	5.732254520E-4	7.615886515E-4	-6.347607893E-4
22.0	7.623540594E-4	9.460642587E-4	-7.768379106E-4
22.01	-2.495681644E-4	1.465632979E-3	-2.680153460E-4
22.02	-2.269386713E-4	1.623002503E-3	-1.108863186E-3
22.03	-5.537606734E-4	4.670531178E-4	-1.425562450E-3
22.04	-1.131707757E-4	5.571228901E-4	-6.775814498E-4
22.05	1.276217996E-3	9.984153263E-4	9.739721657E-5
22.06	-8.331067709E-4	1.384424665E-4	-2.788858670E-5
22.07	4.648102020E-4	6.596902571E-4	3.220814616E-4
22.080000000000002	8.171904302E-4	6.959765564E-4	-5.122791004E-5
22.09	-1.779541248E-4	2.616784107E-4	-6.469423517E-4
22.1	1.329538074E-4	1.280693580E-3	-5.634722947E-4
22.11	-1.655911244E-4	1.214437552E-3	-1.029187464E-3
22.12	2.294780210E-4	2.795828420E-4	-9.616555762E-4
22.13	4.426227580E-4	-5.447064842E-4	-2.214167797E-4
22.14	-2.106107620E-4	-8.426133559E-4	-1.009550333E-5
22.150000000000002	1.421205610E-4	-5.549023675E-4	-1.218807310E-4
22.16	2.689157543E-4	-4.561825195E-4	-2.578714249E-4
22.17	-1.396462369E-4	2.178970221E-5	-9.414789041E-4
22.18	3.500370164E-5	3.516288437E-4	-5.420162559E-5
22.19	3.423549317E-4	-8.205925566E-4	1.069319953E-3
22.2	-7.559436182E-4	-1.457837543E-3	1.998240398E-4
22.21	-5.712868277E-4	1.589358246E-4	1.595505825E-4
22.22	8.466142023E-4	3.499122836E-4	2.131817255E-3
22.23	-4.689549434E-4	-2.679821027E-5	3.628012703E-4
22.240000000000002	9.020254281E-4	1.946840028E-3	-4.253817810E-3
22.25	1.253938446E-3	8.699728173E-5	-2.946446523E-3
22.26	8.668847963E-4	1.107851510E-3	-2.723055112E-3
22.27	1.180612530E-6	-9.130329453E-4	3.120472073E-4
22.28	-4.495296881E-4	-1.478384604E-3	4.381225844E-4
22.29	-5.879767055E-4	-1.259679917E-3	5.420886605E-4
22.3	3.375113053E-4	-1.678451128E-3	-6.332871888E-4
22.31	4.200986568E-4	-1.667380795E-3	-1.546331662E-3
22.32	-4.785825251E-4	-1.563048533E-3	-2.229385069E-3
22.330000000000002	-4.186290050E-4	-2.034402383E-3	-1.891511911E-3
22.34	6.021045996E-4	-2.501032338E-3	-2.086679966E-4
22.35	5.011809034E-4	-2.388986183E-3	5.719106398E-5
