Time (s)	Acceleration x (m/s^2)	Acceleration y (m/s^2)	Acceleration z (m/s^2)
0.0	3.258201891E-3	5.823381306E-3	-3.887953514E-3
0.01	1.387442637E-3	9.678597099E-3	-4.958015951E-3
0.02	2.709787781E-3	9.474717200E-3	-4.334991888E-3
0.03	3.663491527E-3	6.096510254E-3	-3.733078515E-3
0.04	3.630817001E-3	3.857084006E-3	-4.657022510E-3
0.05	2.759892490E-3	-1.821017408E-3	-4.054667370E-3
0.06	2.204521964E-3	-6.888441136E-3	-3.360824734E-3
0.07	1.999410535E-3	-8.862851947E-3	-3.315019622E-3
0.08	1.810598358E-3	-7.676280182E-3	-3.603806848E-3
0.09	2.063792717E-3	-4.187538773E-3	-3.450324399E-3
0.1	3.106140937E-3	1.695258053E-3	-3.369749193E-3
0.11	4.013172420E-3	7.374548949E-3	-3.840685219E-3
0.12	4.258749834E-3	1.221471993E-2	-4.354068782E-3
0.13	4.184343431E-3	1.316147775E-2	-4.445877648E-3
0.14	3.653502948E-3	1.100296059E-2	-5.388476578E-3
0.15	1.652170042E-3	2.744275479E-3	-4.156173361E-3
0.16	2.329557234E-3	1.252877217E-3	-4.382891653E-3
0.17	1.345713848E-3	-5.681800983E-4	-3.902353997E-3
0.18	1.977901652E-3	-5.367644071E-3	-4.720759846E-3
0.19	1.122102973E-3	-4.508475705E-3	-5.063435871E-3
0.2	1.515028919E-3	-3.018549839E-3	-3.715939559E-3
0.21	1.914884668E-3	-1.054481268E-3	-3.951468872E-3
0.22	1.975915287E-3	3.157187973E-3	-4.299672338E-3
0.23	1.738857915E-3	6.225553814E-3	-4.205015124E-3
0.24	1.096029556E-3	5.987164892E-3	-4.655286936E-3
0.25	4.282734373E-4	6.792711540E-3	-4.777274908E-3
0.26	5.164085081E-4	5.771004690E-3	-3.988809897E-3
0.27	7.529095202E-4	3.777774856E-3	-4.240336174E-3
0.28	2.139851596E-3	2.771435828E-3	-4.084797308E-3
0.29	2.847450436E-3	-4.055775197E-4	-3.360848345E-3
0.3	2.862876098E-3	-3.308396635E-3	-4.445857726E-3
0.31	2.123271373E-3	-3.114808660E-3	-4.124195916E-3
0.32	1.324313216E-3	-3.997969011E-3	-3.833482093E-3
0.33	1.031085194E-3	-3.920287665E-3	-3.643709769E-3
0.34	1.247810997E-3	-8.207231056E-5	-3.000144931E-3
0.35000000000000003	1.935474911E-3	4.628709499E-3	-2.622572381E-3
0.36	2.528771283E-3	6.696241467E-3	-3.407739897E-3
0.37	2.673210185E-3	8.272475427E-3	-4.155420361E-3
0.38	3.108527467E-3	9.319375209E-3	-3.943166021E-3
0.39	3.048363737E-3	7.018094985E-3	-3.245157130E-3
0.4	2.463201555E-3	4.054774432E-3	-2.144210689E-3
0.41000000000000003	2.005650454E-3	-6.840860494E-4	-3.266293848E-3
0.42	1.792807043E-3	-5.081675889E-3	-3.544779117E-3
0.43	2.557073699E-3	-7.302600618E-3	-2.377759568E-3
0.44	3.324281835E-3	-7.536264821E-3	-3.308501000E-3
0.45	3.161396879E-3	-7.337899066E-3	-2.135334844E-3
0.46	3.752424962E-3	-3.186013179E-3	-2.652630532E-3
0.47000000000000003	2.827092144E-3	2.963644219E-3	-1.999932096E-3
0.48	1.935309845E-3	8.400425006E-3	-2.341666608E-3
0.49	1.811507072E-3	1.113140834E-2	-2.642176309E-3
0.5	1.980735164E-3	1.022630877E-2	-2.743469412E-3
0.51	3.231739383E-3	1.185590285E-2	-2.678036159E-3
0.52	4.561720575E-3	1.098037411E-2	-3.445629429E-3
0.53	4.811168045E-3	2.992124415E-5	-3.302134091E-3
0.54	4.421326940E-3	-6.113610010E-3	-1.434335902E-3
0.55	1.771537068E-2	-2.159166639E-3	-8.256465445E-4
0.56	5.925051532E-2	-8.794662968E-4	5.257493258E-4
0.5700000000000001	1.290625233E-1	1.380840656E-3	6.726429677E-4
0.58	2.070352445E-1	1.627981640E-2	1.291705573E-3
0.59	2.961765885E-1	2.580338102E-2	3.901362140E-3
0.6	3.856534215E-1	2.468140458E-2	7.142303236E-3
0.61	4.380251255E-1	3.991489752E-2	5.802808052E-3
0.62	4.406353199E-1	-3.166986851E-2	-2.513235254E-4
0.63	4.033735587E-1	-3.755442481E-2	1.189228201E-3
0.64	3.216248333E-1	-4.421594530E-2	-4.806725426E-4
0.65	2.086969141E-1	-3.097310239E-2	-4.135212416E-3
0.66	1.150390682E-1	-1.066032794E-2	-3.926353987E-3
0.67	6.683389405E-2	-2.793581888E-3	-1.624937003E-3
0.68	1.948312745E-2	1.755726189E-3	-3.309211092E-3
0.6900000000000001	9.798912106E-4	-1.249353702E-3	5.782472781E-4
0.7000000000000001	-2.683163261E-2	6.043235753E-2	-7.654276718E-3
0.71	-3.936050270E-2	5.803613110E-2	-2.051081414E-3
0.72	-3.097837204E-2	4.349097861E-2	-4.119419117E-3
0.73	-1.945056075E-2	3.928257488E-2	-5.700998511E-3
0.74	7.869229290E-3	-2.685552588E-2	-9.156958453E-3
0.75	1.792486034E-2	-5.040137052E-2	-1.442795802E-2
0.76	2.319258614E-2	-5.117964492E-2	-2.025269934E-2
0.77	8.486442453E-3	-4.294832491E-2	-2.308948993E-2
0.78	-4.354225970E-3	-2.594720849E-2	-2.455207808E-2
0.79	-1.418569897E-2	3.194201477E-3	-2.629139768E-2
0.8	-1.430570320E-2	9.518493536E-3	-2.316103942E-2
0.81	1.279350303E-3	1.745561624E-3	-1.466032545E-2
0.8200000000000001	3.368030096E-3	2.627608399E-2	-6.737437758E-3
0.8300000000000001	6.551294918E-3	2.654650122E-2	1.633908304E-3
0.84	-2.332614153E-2	4.159313251E-2	4.368773082E-3
0.85	-3.598035391E-2	5.439822383E-2	5.054526670E-3
0.86	-6.419990375E-2	3.972913159E-2	-8.616700839E-5
0.87	-6.333708123E-2	-2.016888307E-2	1.434195510E-3
0.88	-9.872234199E-2	-1.837241904E-2	-4.362025017E-3
0.89	-1.342369261E-1	-5.008662938E-2	2.704957709E-4
0.9	-2.035012740E-1	-4.422614668E-2	2.511443879E-3
0.91	-2.687268144E-1	-1.944609344E-2	7.018401519E-3
0.92	-3.366603634E-1	1.201957073E-3	9.149849855E-3
0.93	-3.844793470E-1	-8.242910106E-3	1.404870048E-2
0.9400000000000001	-4.296996648E-1	-4.894068936E-3	1.622663982E-2
0.9500000000000001	-4.751436223E-1	5.646203545E-3	1.795615928E-2
0.96	-5.147644837E-1	8.508894561E-3	2.219678097E-2
0.97	-5.410415692E-1	2.220336776E-2	2.411224860E-2
0.98	-5.550092849E-1	4.461040838E-2	2.128761793E-2
0.99	-5.196172870E-1	6.300963279E-3	1.692433917E-2
1.0	-4.719652497E-1	-2.504657955E-3	1.089940487E-2
1.01	-3.948956882E-1	-2.650881964E-2	4.183290111E-3
1.02	-3.153315756E-1	-4.056079788E-2	2.660379219E-4
1.03	-2.185646525E-1	-3.209697400E-2	-2.349059926E-3
1.04	-1.305195040E-1	-9.409627198E-3	-3.027441898E-3
1.05	-4.149621621E-2	9.023853275E-4	-6.257240332E-5
1.06	4.323673308E-2	9.691474233E-3	2.130886878E-3
1.07	1.085005693E-1	1.886570372E-2	6.273503659E-4
1.08	1.494269103E-1	1.141830469E-2	-1.344139342E-3
1.09	1.525476982E-1	1.622280912E-2	-4.607228718E-3
1.1	1.288402723E-1	2.768335649E-2	-9.421986604E-3
1.11	7.454522117E-2	2.805557781E-2	-1.392082229E-2
1.12	2.383857101E-2	1.645332255E-2	-1.814152906E-2
1.1300000000000001	-2.530286414E-2	1.002623314E-2	-2.334662406E-2
1.1400000000000001	-6.105794013E-2	-2.472239356E-2	-2.122078341E-2
1.1500000000000001	-8.985995982E-2	-3.663730578E-2	-2.042418932E-2
1.16	-1.105729721E-1	-2.021494441E-2	-1.857362209E-2
1.17	-1.138414183E-1	-1.112184017E-2	-1.638563739E-2
1.18	-9.391565267E-2	5.873589697E-3	-1.346244213E-2
1.19	-5.102697119E-2	1.767622466E-2	-8.051596724E-3
1.2	5.778640268E-3	9.133024348E-3	-1.127337242E-3
1.21	6.246200343E-2	7.771090287E-4	3.789447182E-3
1.22	1.070688444E-1	7.294109319E-3	5.352043597E-3
1.23	1.428283419E-1	1.284592094E-2	4.226370809E-3
1.24	1.710781263E-1	1.320315735E-2	5.424831420E-4
1.25	1.954763276E-1	1.421378831E-2	-2.973430867E-3
1.26	2.232726068E-1	-7.272411137E-4	-4.345059865E-3
1.27	2.508783114E-1	-1.676641274E-2	-3.777456036E-3
1.28	2.821835012E-1	-2.254024323E-2	-9.374884149E-5
1.29	3.096924413E-1	-1.235110374E-2	4.396214739E-3
1.3	3.467686054E-1	-6.143001377E-3	1.217925898E-2
1.31	3.807777827E-1	2.225378571E-2	1.473992999E-2
1.32	4.236771908E-1	2.694407149E-2	1.575602079E-2
1.33	4.656369920E-1	2.238248218E-2	1.313209536E-2
1.34	5.011001981E-1	1.747273931E-2	1.126176285E-2
1.35	5.103427672E-1	1.538192413E-2	7.386152026E-3
1.36	4.941798868E-1	1.397392303E-2	4.032321458E-3
1.37	4.502985271E-1	2.010367399E-2	1.812917096E-3
1.3800000000000001	3.926212287E-1	1.781072503E-2	-5.179409307E-4
1.3900000000000001	3.233560613E-1	2.468070806E-3	-1.586623669E-3
1.4000000000000001	2.479244951E-1	-1.422669563E-2	-2.236179072E-3
1.41	1.661926418E-1	-2.506563508E-2	-2.471202595E-3
1.42	7.504480829E-2	-2.478401733E-2	-1.211613489E-3
1.43	-1.209740795E-2	-7.575801108E-3	5.685631324E-4
1.44	-7.758617772E-2	1.070875422E-2	1.043686084E-3
1.45	-1.165711508E-1	1.397809991E-2	1.354637241E-3
1.46	-1.331365413E-1	8.418053332E-3	2.634890063E-4
1.47	-1.266933236E-1	8.521167808E-3	-2.386297936E-3
1.48	-1.065415299E-1	1.638870151E-3	-9.625881393E-3
1.49	-7.982393169E-2	1.148705653E-2	-1.764222647E-2
1.5	-4.181600435E-2	1.505152145E-2	-2.392261191E-2
1.51	7.443672515E-4	8.168964438E-3	-2.484143416E-2
1.52	4.966893691E-2	-1.393287860E-3	-2.233686717E-2
1.53	9.148313528E-2	-9.322655402E-3	-1.839768978E-2
1.54	1.186173447E-1	-1.557013500E-2	-1.294322126E-2
1.55	1.282370184E-1	-1.253218560E-2	-8.184659470E-3
1.56	1.145389390E-1	9.426231694E-4	-5.330063509E-3
1.57	8.403816340E-2	8.955108104E-3	-2.340501145E-3
1.58	3.788518915E-2	1.446654686E-2	7.708807498E-4
1.59	-1.982223554E-2	1.767857970E-2	3.240810874E-3
1.6	-8.787128273E-2	8.817657072E-3	4.064023739E-3
1.61	-1.564126378E-1	2.209832645E-3	4.904251018E-3
1.62	-2.317188209E-1	6.568463543E-3	3.800376141E-3
1.6300000000000001	-3.067154966E-1	4.810984350E-3	4.286738039E-3
1.6400000000000001	-3.658519953E-1	4.954976406E-3	4.200912884E-3
1.6500000000000001	-4.023681322E-1	1.811364386E-4	5.978656148E-3
1.6600000000000001	-4.205260164E-1	-1.419140796E-2	9.455264708E-3
1.67	-4.227968756E-1	-2.463071142E-2	1.453480785E-2
1.68	-4.215654781E-1	-2.281497636E-2	2.004996817E-2
1.69	-4.167565303E-1	-1.396083365E-2	2.327730186E-2
1.7	-4.075562955E-1	-3.763323268E-3	2.403774839E-2
1.71	-3.934156589E-1	4.404492897E-3	2.134828541E-2
1.72	-3.744437876E-1	4.483916883E-3	1.609292385E-2
1.73	-3.555157512E-1	-5.148758761E-4	1.111297297E-2
1.74	-3.407324818E-1	-1.047857577E-4	6.280616136E-3
1.75	-3.247728723E-1	2.828665137E-3	3.048941018E-3
1.76	-3.019930231E-1	4.321645569E-3	1.777735904E-3
1.77	-2.655446822E-1	5.229457278E-3	3.295405727E-3
1.78	-2.125746759E-1	9.542825575E-4	3.984530811E-3
1.79	-1.449318698E-1	-9.954972855E-3	5.446242785E-3
1.8	-7.568760668E-2	-1.056740070E-2	3.919866987E-3
1.81	-6.433526388E-3	-6.849607392E-3	1.026966626E-4
1.82	5.724889490E-2	-1.047833762E-3	-2.009966005E-3
1.83	1.074188953E-1	7.225424704E-3	-5.431896115E-3
1.84	1.386945514E-1	1.381179006E-2	-8.399122766E-3
1.85	1.514006978E-1	1.281588696E-2	-1.265149697E-2
1.86	1.404001057E-1	1.028121838E-2	-1.753356564E-2
1.87	1.092596307E-1	6.514789127E-3	-2.109871535E-2
1.8800000000000001	5.850153670E-2	2.641419215E-3	-2.204403998E-2
1.8900000000000001	-2.980803316E-3	2.535721816E-3	-2.096059419E-2
1.9000000000000001	-6.443848634E-2	3.903789271E-3	-1.770815649E-2
1.9100000000000001	-1.146903328E-1	4.072925106E-4	-1.188109188E-2
1.92	-1.400309032E-1	-6.351049603E-3	-4.164790876E-3
1.93	-1.395824921E-1	-1.238457329E-2	1.801118781E-3
1.94	-1.169303378E-1	-1.511344928E-2	4.152739353E-3
1.95	-7.534977041E-2	-7.138239272E-3	4.682322323E-3
1.96	-1.209912415E-2	6.291868420E-3	3.878342050E-3
1.97	6.284578886E-2	1.025123581E-2	6.769215770E-4
1.98	1.497967568E-1	7.032932029E-3	-5.964419788E-4
1.99	2.421316382E-1	4.400160555E-3	-2.363096914E-3
2.0	3.190552591E-1	6.830994746E-4	-1.264493387E-3
2.0100000000000002	3.810097885E-1	3.825282424E-3	9.893393758E-4
2.02	4.275724692E-1	9.412834585E-3	3.807385116E-3
2.0300000000000002	4.567815477E-1	1.036997364E-2	6.856418166E-3
2.04	4.727089461E-1	8.100863849E-3	9.020562204E-3
2.05	4.753367713E-1	5.435272848E-3	1.084521530E-2
2.06	4.653820437E-1	3.355231230E-3	1.281563333E-2
2.07	4.429309941E-1	4.314378626E-3	1.426029261E-2
2.08	4.122527662E-1	8.066672558E-3	1.459487706E-2
2.09	3.737835657E-1	1.167045154E-2	1.299053328E-2
2.1	3.351240759E-1	1.359129696E-2	8.568151812E-3
2.11	2.941615151E-1	1.518742153E-2	3.262308475E-3
2.12	2.527149445E-1	9.817273225E-3	-8.196195589E-4
2.13	2.163344946E-1	3.174436525E-3	-3.617872948E-3
2.14	1.755132307E-1	-1.221848819E-3	-2.612370785E-3
2.15	1.343653273E-1	-1.812670858E-3	1.108304423E-3
2.16	9.573258830E-2	-1.699451497E-3	4.875864747E-3
2.17	6.222328851E-2	-2.302918896E-4	7.120767759E-3
2.18	3.453348999E-2	-5.028790350E-3	5.588378270E-3
2.19	1.062234371E-2	-1.048139019E-2	2.067077399E-3
2.2	-1.130314172E-2	-1.045575429E-2	-3.931764800E-3
2.21	-3.309684726E-2	-4.296554850E-3	-1.014643021E-2
2.22	-5.271483372E-2	5.090316314E-3	-1.447720174E-2
2.23	-6.394496760E-2	1.168092476E-2	-1.776849655E-2
2.24	-6.355417161E-2	1.205245879E-2	-2.005247725E-2
2.25	-5.437240856E-2	6.818612842E-3	-2.065707578E-2
2.2600000000000002	-3.620265860E-2	4.470113939E-3	-1.813676949E-2
2.27	-1.500911256E-2	6.120191912E-3	-1.532391661E-2
2.2800000000000002	1.139731280E-2	5.754684841E-3	-1.063385311E-2
2.29	3.708956819E-2	7.576474370E-3	-7.278164763E-3
2.3000000000000003	5.891699254E-2	4.516349790E-3	-2.549831251E-3
2.31	7.309902534E-2	-3.179604296E-4	-5.784326367E-4
2.32	7.165069478E-2	-4.033178223E-3	1.371990392E-3
2.33	4.587085778E-2	-4.064139612E-3	1.829543208E-3
2.34	-1.217919906E-3	-2.030752099E-3	1.497091418E-3
2.35	-6.909262815E-2	1.863083643E-3	7.924357351E-4
2.36	-1.487705432E-1	4.202102041E-3	7.610814312E-4
2.37	-2.410137260E-1	4.554842589E-3	2.156434946E-3
2.38	-3.340336468E-1	2.925216866E-3	4.957188165E-3
2.39	-4.175735036E-1	-6.557964838E-5	9.342551929E-3
2.4	-4.866024923E-1	-3.790556669E-3	1.496505700E-2
2.41	-5.371802682E-1	-6.800752368E-3	1.990324995E-2
2.42	-5.565041332E-1	-4.640046168E-3	2.330734629E-2
2.43	-5.480423480E-1	-4.982782176E-3	2.262579769E-2
2.44	-5.126413669E-1	-7.787974424E-3	2.193378048E-2
2.45	-4.494734066E-1	-1.102947480E-2	1.781731385E-2
2.46	-3.796913078E-1	-1.386011067E-2	1.471844084E-2
2.47	-3.100819485E-1	-9.925229387E-3	9.566931912E-3
2.48	-2.394007366E-1	-9.290277469E-4	6.330671614E-3
2.49	-1.803040573E-1	4.631536512E-3	4.703574683E-3
2.5	-1.316486165E-1	6.426760589E-3	2.221091985E-3
2.5100000000000002	-9.188741896E-2	4.717680809E-3	2.038784100E-4
2.52	-6.487693099E-2	1.235823340E-3	9.660138479E-4
2.5300000000000002	-5.108954978E-2	8.406425991E-4	1.581780095E-3
2.54	-4.451604288E-2	2.228739923E-3	2.022929614E-3
2.5500000000000003	-3.954148318E-2	3.507161269E-3	2.860717576E-3
2.56	-3.184270388E-2	3.335292941E-3	1.265430031E-3
2.57	-1.972216408E-2	9.121092436E-4	-3.525752000E-3
2.58	-6.240332946E-3	-1.039024149E-3	-9.113288046E-3
2.59	4.564508605E-3	-4.798016191E-4	-1.614170313E-2
2.6	1.426079186E-2	2.231813354E-3	-2.125989297E-2
2.61	1.998506403E-2	4.266714916E-3	-2.291259938E-2
2.62	1.983086582E-2	5.628014416E-3	-2.208491778E-2
2.63	1.652075036E-2	7.660046376E-3	-1.957871046E-2
2.64	7.471882561E-3	5.155894406E-3	-1.406092819E-2
2.65	-1.973780780E-3	1.124630118E-3	-7.325453425E-3
2.66	-1.207556745E-2	-1.722921843E-3	-2.642241334E-3
2.67	-1.826020875E-2	-5.629670351E-3	-4.190011881E-4
2.68	-1.895464675E-2	-5.821205079E-3	9.945240201E-4
2.69	-9.238555875E-3	-3.021301693E-3	1.362783692E-3
2.7	1.556461199E-2	-2.820583293E-3	7.666857143E-4
2.71	5.356701151E-2	-4.829492123E-3	1.762737918E-4
2.72	1.035087327E-1	-4.533084608E-3	4.858302043E-4
2.73	1.628359066E-1	-5.727389066E-4	6.844947744E-4
2.74	2.289119308E-1	4.202701490E-3	-5.342999608E-5
2.75	2.952193643E-1	1.127935277E-2	1.602507243E-4
2.7600000000000002	3.608401284E-1	1.439168507E-2	2.342494205E-3
2.77	4.265330599E-1	1.160186518E-2	5.129611095E-3
2.7800000000000002	4.762298106E-1	9.506308088E-3	9.010842987E-3
2.79	5.101288643E-1	8.394753993E-3	1.310318494E-2
2.8000000000000003	5.223549259E-1	1.037759762E-2	1.446352771E-2
2.81	5.174232075E-1	1.006881756E-2	1.331255342E-2
2.82	4.906740708E-1	7.716267938E-3	9.178346986E-3
2.83	4.459007671E-1	1.931484175E-3	5.347762559E-3
2.84	3.855981063E-1	-2.147081564E-3	1.455176171E-3
2.85	3.143990842E-1	-2.963250859E-3	-6.547177185E-4
2.86	2.311682713E-1	-5.566075627E-4	-9.323300059E-4
2.87	1.481273501E-1	3.622311518E-3	1.761121244E-4
2.88	7.616502347E-2	5.599780282E-3	2.499045577E-3
2.89	1.222814907E-2	5.139428480E-3	3.914983198E-3
2.9	-3.060366910E-2	5.549824229E-3	3.376637461E-3
2.91	-5.706418488E-2	3.750960217E-3	2.417454963E-3
2.92	-5.829792146E-2	-1.433138998E-3	-3.403286414E-4
2.93	-4.590946238E-2	-2.704907933E-3	-3.611268010E-3
2.94	-2.045586460E-2	-2.814631780E-3	-7.121144039E-3
2.95	8.142580314E-3	-4.064842571E-3	-1.043807653E-2
2.96	3.730862553E-2	-2.610171342E-3	-1.452806303E-2
2.97	6.372795576E-2	-1.433745897E-3	-1.856447991E-2
2.98	8.002253937E-2	-2.762355161E-3	-2.082581688E-2
2.99	8.237165796E-2	2.234476487E-4	-2.203603079E-2
3.0	7.136647926E-2	5.695790360E-3	-2.049260327E-2
3.0100000000000002	5.009728882E-2	9.055470367E-3	-1.486716853E-2
3.02	2.277877362E-2	1.094364014E-2	-9.986499413E-3
3.0300000000000002	-5.761746714E-3	1.036529069E-2	-3.206651105E-3
3.04	-3.369011023E-2	6.257544648E-3	1.601681617E-3
3.0500000000000003	-5.810798535E-2	4.862974589E-3	3.509643580E-3
3.06	-8.060110543E-2	1.461145715E-3	1.681885963E-3
3.0700000000000003	-1.025155993E-1	1.010389391E-3	1.157775388E-3
3.08	-1.226899982E-1	-7.594742851E-4	-7.487456881E-4
3.09	-1.450936706E-1	-5.208876618E-3	-1.088442685E-3
3.1	-1.749009072E-1	-6.727370145E-3	6.834424597E-4
3.11	-2.131729747E-1	-5.910524882E-3	4.461391867E-3
3.12	-2.611130281E-1	-5.763666986E-3	8.589803718E-3
3.13	-3.159498160E-1	-5.455564745E-3	1.158701896E-2
3.14	-3.712572109E-1	-3.166478491E-3	1.491231754E-2
3.15	-4.272560069E-1	-3.520067306E-3	1.808292118E-2
3.16	-4.685614261E-1	-3.002602919E-3	1.976965452E-2
3.17	-4.971582144E-1	-3.049371979E-3	1.906487154E-2
3.18	-5.063163677E-1	-5.779474530E-3	1.832353653E-2
3.19	-4.915489735E-1	-6.876450851E-3	1.731144053E-2
3.2	-4.560387159E-1	-6.748715868E-3	1.405627596E-2
3.21	-3.989757531E-1	-5.948779434E-3	1.022151265E-2
3.22	-3.300905083E-1	-4.950354511E-3	6.900556048E-3
3.23	-2.492328925E-1	-4.452664104E-3	3.672157887E-3
3.24	-1.641220878E-1	-3.839711765E-3	2.073227035E-3
3.25	-8.525921677E-2	-2.802229562E-3	2.847321818E-3
3.2600000000000002	-2.117779477E-2	-6.602939127E-5	2.990144056E-3
3.27	2.590597372E-2	4.147414729E-3	2.902234738E-3
3.2800000000000002	5.905121533E-2	5.510076730E-3	3.057391856E-3
3.29	7.497408372E-2	4.146945535E-3	1.455936199E-3
3.3000000000000003	7.644397788E-2	1.511670144E-3	-4.092716900E-3
3.31	6.016652170E-2	-2.803884088E-4	-8.802175626E-3
3.3200000000000003	3.378593862E-2	-1.125437965E-3	-1.317296191E-2
3.33	6.370298951E-4	1.754196421E-3	-1.715470766E-2
3.34	-3.488320746E-2	1.362304171E-3	-1.855857241E-2
3.35	-6.356575390E-2	2.121229841E-4	-1.820643721E-2
3.36	-8.473105445E-2	-1.494721449E-3	-1.596351344E-2
3.37	-9.810396246E-2	-2.389816821E-3	-1.337441346E-2
3.38	-1.000041605E-1	-1.318456400E-3	-1.092133338E-2
3.39	-8.971135740E-2	4.668075243E-4	-7.874777764E-3
3.4	-6.392778815E-2	8.851094021E-4	-4.601290183E-3
3.41	-2.496670012E-2	-1.183007733E-4	-1.442276916E-3
3.42	2.265016507E-2	-1.819702060E-3	1.435587157E-3
3.43	7.370470090E-2	-3.253460996E-3	2.307900491E-3
3.44	1.281693887E-1	-4.493746434E-3	1.095650974E-3
3.45	1.834995293E-1	-5.656532920E-3	-2.374831772E-4
3.46	2.319747329E-1	-4.803748052E-3	-2.650148661E-3
3.47	2.766459237E-1	-2.913603654E-3	-5.284537707E-3
3.48	3.094286622E-1	8.053061335E-4	-2.976369263E-3
3.49	3.367954247E-1	4.701488717E-3	2.265751350E-3
3.5	3.594743929E-1	6.493792928E-3	6.676584604E-3
3.5100000000000002	3.760119419E-1	9.233082514E-3	1.085857867E-2
3.52	3.866699332E-1	1.023959707E-2	1.394032473E-2
3.5300000000000002	3.932130637E-1	1.333231359E-2	1.438173527E-2
3.54	3.980954153E-1	1.536873817E-2	1.300871518E-2
3.5500000000000003	4.006268917E-1	1.213510441E-2	1.007084471E-2
3.56	3.996916897E-1	6.586598633E-3	6.756170135E-3
3.5700000000000003	3.911950239E-1	2.063835270E-3	3.722604591E-3
3.58	3.705566002E-1	-1.174587482E-3	1.603475504E-3
3.59	3.351386080E-1	-2.883388435E-3	1.288320609E-3
3.6	2.884232094E-1	-3.791260330E-3	1.886169695E-3
3.61	2.317133799E-1	-4.197089618E-3	2.365557473E-3
3.62	1.638943924E-1	-5.855038304E-3	2.840884693E-3
3.63	8.976731059E-2	-5.925961548E-3	3.064231962E-3
3.64	2.165345204E-2	-2.473060620E-3	1.406590648E-3
3.65	-3.916322026E-2	1.246624873E-3	1.293168312E-3
3.66	-8.404693084E-2	3.451218428E-3	-3.357741005E-4
3.67	-1.084179509E-1	3.365470329E-3	-3.224265486E-3
3.68	-1.097837635E-1	1.635814147E-3	-6.153256118E-3
3.69	-9.171687804E-2	-4.888946563E-5	-1.128064829E-2
3.7	-5.555386466E-2	3.274219250E-4	-1.605253166E-2
3.71	-1.005205129E-2	-2.825886537E-4	-1.983964207E-2
3.72	3.983524437E-2	-8.806383859E-4	-2.052681783E-2
3.73	8.683832962E-2	-3.285775311E-4	-1.811126410E-2
3.74	1.210438618E-1	1.182844761E-3	-1.438334207E-2
3.75	1.360116256E-1	2.485139476E-3	-1.097100555E-2
3.7600000000000002	1.311565420E-1	2.780804377E-3	-6.759716116E-3
3.77	1.090456289E-1	2.556859768E-3	-3.034243732E-3
3.7800000000000002	6.609102642E-2	2.244077869E-3	-1.420152668E-3
3.79	5.531546222E-3	3.651760967E-3	-1.482342187E-3
3.8000000000000003	-6.592332651E-2	4.821873451E-3	-7.059027996E-4
3.81	-1.360335065E-1	3.905453010E-3	5.952329010E-4
3.8200000000000003	-2.001895699E-1	2.688892619E-3	2.631936317E-3
3.83	-2.601449952E-1	-1.904144975E-3	2.575486228E-3
3.84	-3.092912867E-1	-6.089731774E-3	4.486091096E-3
3.85	-3.506517819E-1	-5.970065626E-3	6.691170635E-3
3.86	-3.812652233E-1	-4.963140578E-3	9.290355902E-3
3.87	-3.984198641E-1	-7.435322509E-3	1.186996629E-2
3.88	-4.053757836E-1	-8.798330040E-3	1.556784289E-2
3.89	-4.067146169E-1	-8.770829086E-3	1.914931823E-2
3.9	-4.025742798E-1	-9.025067628E-3	2.045658183E-2
3.91	-3.932384052E-1	-7.508963344E-3	2.009592110E-2
3.92	-3.788744110E-1	-4.363238575E-3	1.830236474E-2
3.93	-3.580096300E-1	-4.329526136E-3	1.343658641E-2
3.94	-3.336287758E-1	-3.787637905E-3	7.947347991E-3
3.95	-3.026838447E-1	-2.311840031E-3	5.788891819E-3
3.96	-2.687859248E-1	-2.099370837E-3	3.216845148E-3
3.97	-2.312030945E-1	-1.855302914E-3	3.504357582E-3
3.98	-1.873474977E-1	-2.232678638E-3	4.919544463E-3
3.99	-1.411903314E-1	-1.030744732E-3	7.109031296E-3
4.0	-9.769658210E-2	-6.340399856E-4	7.177733003E-3
4.01	-5.878723663E-2	1.211748755E-3	4.507247854E-3
4.0200000000000005	-2.150895733E-2	1.179752081E-3	9.302115086E-4
4.03	1.204005184E-2	7.021255812E-4	-2.941174788E-3
4.04	3.665649152E-2	1.577791913E-3	-7.625409538E-3
4.05	5.149689087E-2	2.462965469E-3	-1.144885436E-2
4.0600000000000005	5.630208257E-2	2.779171745E-3	-1.360427965E-2
4.07	5.006702780E-2	4.583817300E-3	-1.634104919E-2
4.08	3.613829784E-2	2.387484977E-3	-1.791577293E-2
4.09	1.447617650E-2	-1.289334989E-3	-1.838044981E-2
4.1	-1.254252264E-2	-2.091463032E-3	-1.713566964E-2
4.11	-4.613188863E-2	-2.605153071E-3	-1.304051213E-2
4.12	-7.490569111E-2	-3.347951738E-3	-8.758639062E-3
4.13	-9.272486671E-2	-1.575597892E-3	-3.423781815E-3
4.14	-9.664321277E-2	-3.199885353E-3	-3.473422474E-4
4.15	-8.259155190E-2	-4.718265035E-3	1.856379312E-3
4.16	-5.237162064E-2	-3.274117882E-3	1.698191976E-3
4.17	-8.159476348E-4	-1.017008209E-3	-9.659630729E-5
4.18	6.209373140E-2	2.660857182E-4	-2.331806876E-3
4.19	1.401386125E-1	7.611207246E-4	-3.518931893E-3
4.2	2.265621243E-1	9.280776266E-4	-3.303950062E-3
4.21	3.089367850E-1	1.460107128E-3	-1.877749740E-3
4.22	3.776444214E-1	3.311807013E-3	1.662359162E-3
4.23	4.314511739E-1	5.028897733E-3	5.896297139E-3
4.24	4.691577985E-1	5.744869432E-3	7.819509047E-3
4.25	4.825725302E-1	6.330900127E-3	1.019118257E-2
4.26	4.774536262E-1	7.543811344E-3	1.102052385E-2
4.2700000000000005	4.499965291E-1	8.498053477E-3	1.104482906E-2
4.28	4.118327300E-1	8.492986247E-3	1.130036031E-2
4.29	3.653704629E-1	8.924784313E-3	8.774398668E-3
4.3	3.149359298E-1	5.565116840E-3	8.399532653E-3
4.3100000000000005	2.695643568E-1	3.344668712E-3	6.402631744E-3
4.32	2.282024101E-1	3.059006629E-3	3.349883492E-3
4.33	1.910704190E-1	2.011888763E-3	1.956795412E-3
4.34	1.629347779E-1	5.195777568E-4	3.587232920E-4
4.3500000000000005	1.415887803E-1	-4.987728172E-4	8.382670885E-4
4.36	1.226478956E-1	-2.401014192E-3	2.742455248E-3
4.37	1.025348230E-1	-3.798751296E-3	3.760894221E-3
4.38	7.985001053E-2	-3.059863776E-3	3.920826165E-3
4.39	5.739640261E-2	-3.011471629E-3	3.154508672E-3
4.4	3.435621593E-2	-3.945143705E-3	-7.210150536E-4
4.41	1.088744437E-2	-3.310412404E-3	-7.340566131E-3
4.42	-6.293886130E-3	-2.320116851E-3	-1.159300132E-2
4.43	-2.415332848E-2	-1.438866858E-4	-1.592310484E-2
4.44	-2.995895181E-2	3.117932812E-3	-1.825410342E-2
4.45	-2.673350521E-2	4.863706283E-3	-1.839285982E-2
4.46	-1.439806060E-2	4.251529341E-3	-1.732508342E-2
4.47	3.598709240E-3	4.687146999E-3	-1.326888286E-2
4.48	2.354176240E-2	4.937830027E-3	-1.156796878E-2
4.49	4.068969594E-2	3.538232284E-3	-7.623743640E-3
4.5	5.376095150E-2	2.125113033E-3	-5.429763011E-3
4.51	5.779463446E-2	6.027747769E-4	-3.912518786E-3
4.5200000000000005	4.699619645E-2	-9.570705626E-4	-1.747225146E-3
4.53	2.216000353E-2	-1.251373331E-3	-1.077537180E-3
4.54	-1.582916853E-2	-1.258643307E-3	-6.659238735E-4
4.55	-6.959437763E-2	-3.313558720E-3	-4.187409211E-4
4.5600000000000005	-1.296362672E-1	-3.134762808E-3	7.040836865E-4
4.57	-1.994728470E-1	-2.724325288E-3	1.485471768E-3
4.58	-2.675728468E-1	-2.933947306E-3	3.051517908E-3
4.59	-3.351801410E-1	-2.267182071E-3	6.239318694E-3
4.6000000000000005	-3.960734558E-1	-2.698638143E-3	1.148102683E-2
4.61	-4.407076724E-1	-4.271517187E-3	1.613091690E-2
4.62	-4.687292201E-1	-6.546546153E-3	1.930539301E-2
4.63	-4.825448736E-1	-8.197531221E-3	2.071764272E-2
4.64	-4.785518979E-1	-8.152517917E-3	2.001577595E-2
4.65	-4.562725394E-1	-7.571923769E-3	1.828698955E-2
4.66	-4.173841174E-1	-7.062048961E-3	1.508737299E-2
4.67	-3.632381958E-1	-7.263473912E-3	1.179610462E-2
4.68	-3.037718013E-1	-6.017249471E-3	8.802508555E-3
4.69	-2.405580186E-1	-4.559874746E-3	7.459669984E-3
4.7	-1.760579413E-1	-1.819754297E-3	5.328367976E-3
4.71	-1.233012113E-1	-1.037041983E-4	4.680428749E-3
4.72	-7.532752333E-2	2.154915425E-3	3.932123793E-3
4.73	-3.924863560E-2	1.999175087E-3	3.513190933E-3
4.74	-1.862636851E-2	8.142548638E-4	3.177317418E-3
4.75	-1.213741567E-2	7.874034328E-4	2.556712616E-3
4.76	-1.583065800E-2	3.935217059E-4	1.109206323E-3
4.7700000000000005	-2.399514123E-2	1.271887573E-4	-1.486037622E-3
4.78	-3.536180111E-2	-1.698360458E-5	-4.986590559E-3
4.79	-4.712835639E-2	2.276488567E-4	-9.403351539E-3
4.8	-5.507198144E-2	8.581444201E-4	-1.435063243E-2
4.8100000000000005	-5.757324095E-2	1.949817192E-3	-1.830405424E-2
4.82	-5.361626452E-2	2.606530737E-3	-1.966323274E-2
4.83	-4.305757573E-2	1.335469031E-3	-1.778026725E-2
4.84	-3.045673966E-2	1.249757325E-3	-1.487519718E-2
4.8500000000000005	-1.685114587E-2	-5.317066855E-4	-9.736657116E-3
4.86	-2.848546548E-3	2.233762921E-4	-5.430859054E-3
4.87	7.727129386E-3	-1.227010910E-3	-3.341681255E-3
4.88	1.776706394E-2	-4.093402191E-3	-1.285948510E-3
4.89	2.937060994E-2	-5.111030735E-3	-4.973335322E-4
4.9	4.322380154E-2	-5.214085986E-3	-1.059600304E-3
4.91	6.076221552E-2	-3.914801464E-3	-2.199267545E-3
4.92	8.735339242E-2	-2.743282921E-3	-2.150288098E-3
4.93	1.265355482E-1	-1.180499099E-3	-1.594524719E-3
4.94	1.757187806E-1	8.098093123E-4	-6.412906192E-4
4.95	2.317385198E-1	3.169390227E-3	1.095494464E-3
4.96	2.903954893E-1	6.475442321E-3	3.614204155E-3
4.97	3.502832170E-1	9.809647385E-3	5.690329677E-3
4.98	4.083531474E-1	1.108077532E-2	7.316553500E-3
4.99	4.529520046E-1	1.015324590E-2	9.692811187E-3
5.0	4.804352531E-1	8.510938820E-3	1.092719294E-2
5.01	4.865264970E-1	7.275671545E-3	1.088732021E-2
5.0200000000000005	4.738082488E-1	6.003336716E-3	1.225319954E-2
5.03	4.393869248E-1	3.513455824E-3	8.639416938E-3
5.04	3.871806494E-1	8.927799912E-4	5.301955956E-3
5.05	3.200788618E-1	-3.232924281E-4	2.719824172E-3
5.0600000000000005	2.498059245E-1	-1.044173453E-3	1.245646876E-3
5.07	1.826620724E-1	-8.966338820E-4	1.063242367E-3
5.08	1.171710665E-1	3.595860241E-4	2.859061691E-3
5.09	6.504617357E-2	7.589780438E-4	4.419937775E-3
5.1000000000000005	2.479561506E-2	8.614148095E-4	5.565320740E-3
5.11	-3.995394981E-3	5.710016572E-4	5.357687750E-3
5.12	-1.552990381E-2	-1.064740219E-4	2.900812523E-3
5.13	-1.579751124E-2	-1.373911749E-4	-1.971678761E-4
5.14	-5.541843147E-3	-1.259470629E-3	-4.236111341E-3
5.15	1.188314084E-2	-3.265880472E-3	-8.826739765E-3
5.16	3.180096083E-2	-3.805978466E-3	-1.165174634E-2
5.17	5.041614954E-2	-2.951768698E-3	-1.400454843E-2
5.18	6.686989146E-2	-4.881136991E-4	-1.689598787E-2
5.19	7.855321520E-2	-3.866737214E-5	-1.733382377E-2
5.2	8.361622956E-2	1.583729372E-3	-1.625348544E-2
5.21	7.879095641E-2	3.296441047E-3	-1.431828322E-2
5.22	6.856380734E-2	4.804375588E-3	-1.113711806E-2
5.23	4.848433211E-2	5.808680301E-3	-7.602282581E-3
5.24	2.172823141E-2	5.736829591E-3	-3.689857416E-3
5.25	-9.212624774E-3	5.002802545E-3	-6.852334515E-4
5.26	-4.582177669E-2	2.253956063E-3	6.058433175E-4
5.2700000000000005	-8.473459877E-2	-2.931707061E-4	8.399222522E-4
5.28	-1.227969232E-1	-6.617294932E-4	-6.197445845E-5
5.29	-1.618095646E-1	-2.211793897E-3	-4.937297900E-4
5.3	-2.001304398E-1	-4.667610190E-3	9.466595855E-4
5.3100000000000005	-2.369460875E-1	-5.134778994E-3	2.089759330E-3
5.32	-2.715897645E-1	-5.842971668E-3	5.274334007E-3
5.33	-3.025805590E-1	-6.254748620E-3	8.751032740E-3
5.34	-3.334489004E-1	-4.668498737E-3	1.342566814E-2
5.3500000000000005	-3.600590381E-1	-5.716670617E-3	1.611803556E-2
5.36	-3.852174333E-1	-5.378043473E-3	1.726374942E-2
5.37	-4.041858635E-1	-4.528073048E-3	1.785923893E-2
5.38	-4.159468619E-1	-4.147886558E-3	1.754812837E-2
5.39	-4.176789331E-1	-4.718318219E-3	1.648920372E-2
5.4	-4.064064792E-1	-4.839116276E-3	1.407140811E-2
5.41	-3.841844622E-1	-5.124274254E-3	1.120348494E-2
5.42	-3.459607617E-1	-4.787650785E-3	9.195840079E-3
5.43	-2.967810421E-1	-3.451041243E-3	7.099072763E-3
5.44	-2.380605457E-1	-1.885765901E-3	5.000453926E-3
5.45	-1.697368190E-1	-1.102881070E-3	4.610017124E-3
5.46	-1.000820594E-1	-1.124080568E-3	4.138784929E-3
5.47	-4.037180764E-2	5.785686284E-4	3.911209694E-3
5.48	8.923818669E-3	1.944764687E-3	3.497675616E-3
5.49	4.665461994E-2	3.085887046E-3	3.159509130E-3
5.5	6.241030958E-2	2.817221419E-3	-5.026004261E-4
5.51	5.938080973E-2	2.282603614E-3	-3.917469497E-3
5.5200000000000005	4.088410158E-2	9.491306626E-4	-9.234275508E-3
5.53	1.086116208E-2	6.335701468E-5	-1.367620048E-2
5.54	-2.709269124E-2	1.018424406E-4	-1.625419221E-2
5.55	-6.571897099E-2	-2.490405844E-4	-1.713220460E-2
5.5600000000000005	-9.768546729E-2	-8.603617442E-4	-1.600137747E-2
5.57	-1.194835714E-1	-1.077182941E-3	-1.274811121E-2
5.58	-1.239773846E-1	-1.587375021E-3	-1.012061476E-2
5.59	-1.154031724E-1	-4.027230819E-4	-7.524486209E-3
5.6000000000000005	-8.916943249E-2	-1.265086956E-3	-4.840871480E-3
5.61	-4.987417894E-2	-1.394879847E-3	-3.300582014E-3
5.62	-1.637461557E-3	-1.335282191E-3	-2.110495324E-3
5.63	5.231056560E-2	-2.340007714E-3	-2.066170360E-3
5.64	1.050218689E-1	-2.158144534E-3	-7.944763151E-4
5.65	1.558700586E-1	-1.866544796E-3	-1.309537100E-3
5.66	2.037023121E-1	-1.720522722E-3	-2.003073495E-3
5.67	2.458581515E-1	-1.743851822E-3	-1.988196759E-3
5.68	2.801042634E-1	-9.038050878E-4	-1.030687201E-3
5.69	3.075951650E-1	1.410984665E-3	1.226658445E-4
5.7	3.292520137E-1	4.220156920E-3	2.355936193E-3
5.71	3.477732583E-1	6.878291322E-3	6.582815515E-3
5.72	3.633063143E-1	8.196692407E-3	1.022175888E-2
5.73	3.739006552E-1	8.966834039E-3	1.145716419E-2
5.74	3.814685548E-1	1.071442159E-2	1.256526063E-2
5.75	3.802485484E-1	1.092250449E-2	1.087737356E-2
5.76	3.729117308E-1	8.111679216E-3	9.210672898E-3
5.7700000000000005	3.599770155E-1	7.290548147E-3	5.440793281E-3
5.78	3.374964499E-1	3.370016847E-3	3.310384569E-3
5.79	3.051426971E-1	2.778456515E-4	3.220252068E-3
5.8	2.662247028E-1	-1.952361685E-3	3.104303437E-3
5.8100000000000005	2.232404781E-1	-2.995012258E-3	3.588185533E-3
5.82	1.736776474E-1	-4.267321661E-3	3.505092325E-3
5.83	1.256441712E-1	-4.691219131E-3	4.112157973E-3
5.84	8.033962586E-2	-4.658388012E-3	3.993078969E-3
5.8500000000000005	3.910793727E-2	-3.420546542E-3	2.464767376E-3
5.86	5.729875793E-3	-3.669313471E-4	-2.480479218E-5
5.87	-2.099610186E-2	1.650710572E-3	-2.564076478E-3
5.88	-3.576233727E-2	9.384128526E-4	-4.635070640E-3
5.89	-3.686022422E-2	2.595650503E-3	-8.171355898E-3
5.9	-2.810152078E-2	1.831885653E-3	-1.276341469E-2
5.91	-1.021845625E-2	3.314923926E-3	-1.456903547E-2
5.92	1.389611926E-2	3.213701085E-3	-1.844951128E-2
5.93	4.456125276E-2	1.243759581E-3	-1.730693899E-2
5.94	7.265426873E-2	-3.395387962E-4	-1.481464440E-2
5.95	9.415266093E-2	3.214445798E-4	-1.190937851E-2
5.96	1.047924565E-1	9.116122482E-4	-8.381924888E-3
5.97	1.013206181E-1	2.049375292E-3	-6.081951601E-3
5.98	8.309888935E-2	2.737349573E-3	-4.320398783E-3
5.99	5.098828090E-2	2.566152166E-3	-3.091279341E-3
6.0	3.102615239E-3	2.385961320E-3	-1.965892130E-3
6.01	-5.909942063E-2	2.381334449E-3	-1.166740890E-3
6.0200000000000005	-1.264139201E-1	1.590417058E-3	-1.134822436E-3
6.03	-1.965170357E-1	2.963584023E-4	3.846374926E-5
6.04	-2.651315960E-1	-1.850078650E-3	1.873787730E-3
6.05	-3.202808048E-1	-3.654888924E-3	4.699470167E-3
6.0600000000000005	-3.684958105E-1	-6.911419579E-3	7.526837213E-3
6.07	-4.000670513E-1	-5.958951934E-3	1.093197395E-2
6.08	-4.148153118E-1	-6.134835058E-3	1.249061986E-2
6.09	-4.119384918E-1	-8.046707078E-3	1.561802412E-2
6.1000000000000005	-3.975788096E-1	-8.649060097E-3	1.672285595E-2
6.11	-3.764536709E-1	-6.501996107E-3	1.696553986E-2
6.12	-3.494011735E-1	-5.496573949E-3	1.589104503E-2
6.13	-3.215956884E-1	-3.713304131E-3	1.393348868E-2
6.140000000000001	-2.940749464E-1	-2.829909887E-3	1.174640833E-2
6.15	-2.676636044E-1	-2.813998993E-3	8.983380052E-3
6.16	-2.431974626E-1	-2.155694259E-3	5.751022552E-3
6.17	-2.201180487E-1	-1.074311088E-3	4.958844130E-3
6.18	-1.972332481E-1	-2.385841527E-4	5.619592960E-3
6.19	-1.707801494E-1	-9.244363150E-4	6.367860084E-3
6.2	-1.396005588E-1	-8.833120133E-4	7.408131648E-3
6.21	-1.082382802E-1	-1.060030847E-3	6.583476336E-3
6.22	-7.544162877E-2	-3.242353343E-4	4.458465265E-3
6.23	-4.250238276E-2	8.553757952E-4	5.543288257E-4
6.24	-1.430791896E-2	1.551753017E-3	-3.327543984E-3
6.25	6.894492259E-3	1.822276812E-3	-6.941919215E-3
6.26	2.059887563E-2	2.046629121E-3	-1.085228097E-2
6.2700000000000005	2.279889179E-2	1.785529994E-3	-1.353816893E-2
6.28	1.431338600E-2	1.065464975E-3	-1.431161914E-2
6.29	-1.274248719E-3	5.558105957E-4	-1.487454644E-2
6.3	-2.371488805E-2	-7.787799449E-4	-1.473898567E-2
6.3100000000000005	-4.618438731E-2	-3.397359485E-3	-1.259966647E-2
6.32	-6.478736328E-2	-3.613916915E-3	-1.057099248E-2
6.33	-7.975492977E-2	-3.608873075E-3	-8.613053079E-3
6.34	-8.335731361E-2	-3.458459242E-3	-4.257597679E-3
6.3500000000000005	-6.877425504E-2	-2.736765826E-3	-3.371419603E-3
6.36	-4.151772656E-2	-2.109661337E-3	-9.731019118E-4
6.37	-1.371695669E-3	-2.583445971E-3	-1.493048256E-3
6.38	4.935741050E-2	-1.767751887E-3	-1.679158690E-3
6.390000000000001	1.102642809E-1	2.713758345E-4	-3.307275015E-3
6.4	1.764066988E-1	1.682581094E-3	-3.762035821E-3
6.41	2.426519015E-1	2.221747187E-3	-2.507137978E-3
6.42	3.034843920E-1	2.774717537E-3	1.443985353E-4
6.43	3.557124935E-1	3.855773600E-3	3.185126234E-3
6.44	3.951075506E-1	4.732698782E-3	5.455414862E-3
6.45	4.210578663E-1	5.320644159E-3	7.667174300E-3
6.46	4.346373765E-1	5.859122400E-3	9.723920756E-3
6.47	4.316625749E-1	6.412201633E-3	1.011395933E-2
6.48	4.151083528E-1	6.117624378E-3	9.190669221E-3
6.49	3.860166935E-1	6.817159714E-3	8.451657576E-3
6.5	3.474966518E-1	6.082051973E-3	7.126342805E-3
6.51	3.036720839E-1	4.305457757E-3	5.961785560E-3
6.5200000000000005	2.560523984E-1	3.018504370E-3	4.651468973E-3
6.53	2.116924098E-1	2.235989305E-3	4.982666238E-3
6.54	1.687561169E-1	1.322878859E-3	2.997275838E-3
6.55	1.312029309E-1	5.526343072E-4	3.070608099E-3
6.5600000000000005	1.031852310E-1	-1.443293261E-3	3.485798820E-3
6.57	8.406633266E-2	-2.060129936E-3	3.365158738E-3
6.58	7.101844204E-2	-2.669792668E-3	3.656300875E-3
6.59	6.219181758E-2	-3.250434077E-3	3.136070784E-3
6.6000000000000005	5.720513437E-2	-2.671325647E-3	4.413286295E-4
6.61	5.377057928E-2	-2.316151243E-3	-3.397664791E-3
6.62	5.208192066E-2	-1.696346187E-3	-7.028964386E-3
6.63	4.800835960E-2	-1.296645614E-3	-1.107646709E-2
6.640000000000001	4.238646884E-2	6.269686489E-4	-1.318035541E-2
6.65	3.668303334E-2	3.356441604E-3	-1.645500854E-2
6.66	3.046495285E-2	3.980803923E-3	-1.640960192E-2
6.67	2.604125172E-2	4.904087595E-3	-1.443320640E-2
6.68	2.285310085E-2	4.297048059E-3	-1.193543086E-2
6.69	2.200575616E-2	4.617026467E-3	-9.165369973E-3
6.7	2.136409837E-2	4.327594088E-3	-7.257282050E-3
6.71	1.926097185E-2	2.831267017E-3	-5.262439083E-3
6.72	1.458414558E-2	4.717008239E-4	-4.221412790E-3
6.73	2.914683163E-3	-2.568730156E-5	-3.452594477E-3
6.74	-1.753463616E-2	-3.120755406E-4	-2.334981439E-3
6.75	-4.932033544E-2	-1.879806267E-3	-1.314447775E-3
6.76	-9.082709217E-2	-1.913425624E-3	-5.760168573E-4
6.7700000000000005	-1.431348957E-1	-2.270062064E-3	2.684876892E-4
6.78	-2.035402000E-1	-4.103414348E-3	1.522973235E-3
6.79	-2.652374168E-1	-3.670720374E-3	4.291991098E-3
6.8	-3.305643440E-1	-2.980444543E-3	7.733467968E-3
6.8100000000000005	-3.855366156E-1	-3.889533941E-3	1.167255577E-2
6.82	-4.253232573E-1	-3.918096581E-3	1.462220328E-2
6.83	-4.488484535E-1	-5.465758904E-3	1.696365858E-2
6.84	-4.527254424E-1	-7.098640978E-3	1.712971659E-2
6.8500000000000005	-4.398616457E-1	-7.053865879E-3	1.635015656E-2
6.86	-4.087082402E-1	-7.536370597E-3	1.349343488E-2
6.87	-3.639335924E-1	-6.785824430E-3	1.181764523E-2
6.88	-3.107499994E-1	-5.904495587E-3	1.030288925E-2
6.890000000000001	-2.560863378E-1	-4.731814477E-3	8.337587747E-3
6.9	-1.993781995E-1	-2.247098567E-3	6.806292356E-3
6.91	-1.471728643E-1	3.211253002E-4	5.578914399E-3
6.92	-1.062342370E-1	1.239792477E-3	5.234250005E-3
6.93	-7.259977109E-2	1.083482157E-3	5.766082339E-3
6.94	-5.238363959E-2	1.484224458E-3	4.725057043E-3
6.95	-3.884895041E-2	2.340129177E-4	3.222220480E-3
6.96	-3.678847670E-2	8.053729959E-4	1.541355540E-3
6.97	-3.850398576E-2	-3.303005721E-4	-2.484343360E-4
6.98	-4.514776800E-2	-7.654617867E-4	-3.948225731E-3
6.99	-5.350651664E-2	-1.410551358E-3	-6.960877877E-3
7.0	-5.965599418E-2	-9.444873075E-4	-9.932367621E-3
7.01	-6.570156061E-2	2.775022017E-4	-1.325559347E-2
7.0200000000000005	-6.894246549E-2	3.279083949E-4	-1.457384592E-2
7.03	-6.850452996E-2	1.656410493E-4	-1.425673224E-2
7.04	-6.399169013E-2	4.459768975E-4	-1.322619647E-2
7.05	-5.561218436E-2	-2.787665825E-4	-1.128574674E-2
7.0600000000000005	-4.270778965E-2	-9.385677427E-4	-8.825497227E-3
7.07	-2.763322519E-2	6.343869514E-5	-5.202485809E-3
7.08	-9.362113810E-3	-2.378195091E-3	-2.613272423E-3
7.09	1.622294073E-2	-3.820776426E-3	-2.780213726E-3
7.1000000000000005	4.408381938E-2	-3.663604365E-3	-3.514824252E-3
7.11	7.409093682E-2	-4.153682168E-3	-3.113994255E-3
7.12	1.047170864E-1	-3.468221548E-3	-3.972133638E-3
7.13	1.409264065E-1	-1.384885250E-3	-3.831616786E-3
7.140000000000001	1.791930507E-1	4.181417746E-4	-2.572269055E-3
7.15	2.191230928E-1	2.256809116E-3	-3.621454480E-5
7.16	2.605863710E-1	5.123417204E-3	2.824855899E-3
7.17	3.008236159E-1	8.155713384E-3	4.563612794E-3
7.18	3.359974483E-1	8.865813643E-3	5.862903814E-3
7.19	3.672191921E-1	9.049617286E-3	7.582256977E-3
7.2	3.942394542E-1	9.736837352E-3	8.612000299E-3
7.21	4.100245606E-1	7.605416597E-3	1.025072837E-2
7.22	4.145272529E-1	6.337436658E-3	9.760505662E-3
7.23	4.076043453E-1	4.845589087E-3	7.786259895E-3
7.24	3.811395918E-1	2.816782883E-3	6.595187096E-3
7.25	3.427270121E-1	6.871973830E-4	5.508956252E-3
7.26	2.962657680E-1	-6.270213412E-4	4.302150987E-3
7.2700000000000005	2.412005321E-1	-2.081456248E-3	3.464620590E-3
7.28	1.798751974E-1	-1.050502169E-3	3.542805942E-3
7.29	1.231327712E-1	3.563052534E-4	3.950189941E-3
7.3	7.212324200E-2	6.978507385E-5	4.997989568E-3
7.3100000000000005	2.864094011E-2	-2.482316689E-4	5.147682700E-3
7.32	7.492172590E-4	3.996390835E-4	3.998778021E-3
7.33	-1.116272985E-2	2.631913811E-4	2.342939378E-3
7.34	-8.359356451E-3	7.893044873E-5	-1.451336582E-3
7.3500000000000005	6.004105994E-3	-7.975850198E-4	-5.482383585E-3
7.36	2.831135029E-2	-2.653672318E-3	-9.336376190E-3
7.37	5.585860808E-2	-4.211759024E-3	-1.341699697E-2
7.38	8.129254065E-2	-7.273564356E-4	-1.442337311E-2
7.390000000000001	1.006141316E-1	-3.288575015E-4	-1.420870644E-2
7.4	1.100817409E-1	2.223460064E-3	-1.543666338E-2
7.41	1.088407423E-1	1.974293996E-3	-1.340694943E-2
7.42	9.822646577E-2	2.923486519E-3	-1.239754857E-2
7.43	7.378847548E-2	4.211155364E-3	-1.000047885E-2
7.44	4.185192861E-2	5.068746824E-3	-7.609075528E-3
7.45	6.039948556E-3	4.387593661E-3	-4.972111636E-3
7.46	-3.300402720E-2	3.257278801E-3	-1.970856047E-3
7.47	-7.337227764E-2	2.073775897E-3	-1.072255150E-3
7.48	-1.117918881E-1	1.964683542E-4	-1.595356593E-3
7.49	-1.476335628E-1	-1.483313464E-3	-1.366887616E-3
7.5	-1.828224605E-1	-2.218475349E-3	2.451189876E-4
7.51	-2.153334907E-1	-4.433086940E-3	2.159611983E-3
7.5200000000000005	-2.439588767E-1	-5.488570800E-3	2.326666926E-3
7.53	-2.712211699E-1	-4.863151474E-3	5.160345745E-3
7.54	-3.010111017E-1	-4.993994167E-3	9.534369729E-3
7.55	-3.261303339E-1	-5.722416504E-3	1.290491605E-2
7.5600000000000005	-3.494035294E-1	-4.960405539E-3	1.477652158E-2
7.57	-3.681352593E-1	-6.206855348E-3	1.612432880E-2
7.58	-3.783688594E-1	-5.615272712E-3	1.584571639E-2
7.59	-3.804112900E-1	-5.053271740E-3	1.495433741E-2
7.6000000000000005	-3.709715685E-1	-5.451268948E-3	1.314017534E-2
7.61	-3.528540247E-1	-4.910949553E-3	1.099554504E-2
7.62	-3.230277118E-1	-4.264341526E-3	9.315617168E-3
7.63	-2.836612386E-1	-3.989498286E-3	8.166988483E-3
7.640000000000001	-2.385341188E-1	-3.193671610E-3	7.657716727E-3
7.65	-1.923741903E-1	-2.336626685E-3	7.687166768E-3
7.66	-1.437870661E-1	-1.506473621E-3	7.005698825E-3
7.67	-9.675080795E-2	2.614841512E-4	5.515658745E-3
7.68	-5.739651113E-2	8.195534145E-4	4.692752400E-3
7.69	-2.424943459E-2	1.084444699E-3	3.361168764E-3
7.7	-1.851361777E-3	1.822877294E-3	-2.225895234E-4
7.71	7.234866943E-3	1.713333019E-3	-1.624252747E-3
7.72	6.799704993E-3	8.080069580E-4	-5.837836022E-3
7.73	-3.570107569E-3	-7.829440622E-4	-8.227047918E-3
7.74	-1.989586556E-2	-1.511844080E-3	-1.198057863E-2
7.75	-4.262630863E-2	-2.133868947E-3	-1.322394891E-2
7.76	-6.596526564E-2	-1.955854985E-3	-1.372529352E-2
7.7700000000000005	-8.675496738E-2	-1.575582511E-3	-1.307110123E-2
7.78	-1.021219622E-1	-1.710006099E-3	-1.057396941E-2
7.79	-1.069962405E-1	-1.140508230E-3	-7.953918749E-3
7.8	-9.990977883E-2	2.461452435E-4	-7.055202166E-3
7.8100000000000005	-7.986829945E-2	-1.985794874E-5	-5.558430028E-3
7.82	-4.861164891E-2	-7.931883428E-4	-3.880232963E-3
7.83	-4.816136901E-3	-9.276136956E-4	-2.801779528E-3
7.84	4.856488454E-2	-2.372225582E-3	-3.402177960E-3
7.8500000000000005	1.073164704E-1	-2.035111833E-3	-2.711797177E-3
7.86	1.629625830E-1	-1.018102694E-3	-4.055184043E-3
7.87	2.166984167E-1	-8.478219948E-4	-1.548399681E-3
7.88	2.645196925E-1	-5.389857281E-4	-1.484695811E-4
7.890000000000001	3.029433538E-1	1.215773159E-3	1.429249715E-5
7.9	3.288518238E-1	2.914675837E-3	1.061194072E-3
7.91	3.464647386E-1	4.840288409E-3	3.407735755E-3
7.92	3.539602381E-1	6.861465588E-3	6.347846234E-3
7.930000000000001	3.530276297E-1	7.912348735E-3	8.803330460E-3
7.94	3.462846020E-1	7.981703157E-3	9.884231765E-3
7.95	3.372121067E-1	8.137439322E-3	9.827482967E-3
7.96	3.262119208E-1	8.010390379E-3	8.536352222E-3
7.97	3.125173770E-1	6.589505607E-3	6.391111734E-3
7.98	2.970360918E-1	4.390005549E-3	4.834649107E-3
7.99	2.797718245E-1	8.932220453E-4	3.924447886E-3
8.0	2.590314870E-1	-1.343429230E-3	3.377602664E-3
8.01	2.324844408E-1	-2.048215059E-3	4.271052594E-3
8.02	2.021943417E-1	-3.013138040E-3	4.776177650E-3
8.03	1.677231708E-1	-2.918794423E-3	5.763933768E-3
8.040000000000001	1.276743244E-1	-3.025564569E-3	5.324642687E-3
8.05	9.040964891E-2	-2.770361769E-3	5.020831764E-3
8.06	5.626993798E-2	-1.213914119E-3	2.364327726E-3
8.07	2.625840494E-2	1.949547293E-4	-7.410555505E-4
8.08	4.472512582E-3	1.059522272E-3	-3.244207721E-3
8.09	-5.467295190E-3	1.471103104E-3	-6.080311655E-3
8.1	-5.426486730E-3	1.400414008E-3	-9.145609952E-3
8.11	5.217770542E-3	1.510066015E-3	-1.165184170E-2
8.120000000000001	2.240478888E-2	2.142096457E-3	-1.282417898E-2
8.13	4.478370073E-2	1.956881926E-3	-1.326830755E-2
8.14	6.910304170E-2	1.526207978E-3	-1.412594612E-2
8.15	8.589386350E-2	1.123944128E-3	-1.235249040E-2
8.16	9.774589919E-2	1.386270678E-3	-9.860007861E-3
8.17	9.767211344E-2	1.604797379E-3	-8.465685601E-3
8.18	8.084495303E-2	1.703174131E-3	-5.620777747E-3
8.19	5.233798833E-2	2.122287398E-3	-3.768276723E-3
8.2	1.427281929E-2	1.808742259E-3	-4.058797049E-3
8.21	-3.349379535E-2	1.060084785E-3	-3.915763473E-3
8.22	-9.161464669E-2	1.034464549E-3	-2.396465196E-3
8.23	-1.494145192E-1	5.329859962E-4	-2.352546793E-3
8.24	-2.070836508E-1	-1.147162018E-3	-9.549609405E-4
8.25	-2.626477834E-1	-2.834676480E-3	2.950359198E-3
8.26	-3.088296940E-1	-4.547641886E-3	6.966114956E-3
8.27	-3.436255781E-1	-6.100467733E-3	8.983186474E-3
8.28	-3.680074215E-1	-5.364130974E-3	1.073246746E-2
8.290000000000001	-3.825946661E-1	-4.419734447E-3	1.268977770E-2
8.3	-3.833974899E-1	-5.703422781E-3	1.377001451E-2
8.31	-3.758418684E-1	-6.156672835E-3	1.533045931E-2
8.32	-3.560917413E-1	-5.640448211E-3	1.482191851E-2
8.33	-3.311852036E-1	-4.525385043E-3	1.278984896E-2
8.34	-3.037397537E-1	-4.763778611E-3	1.184290433E-2
8.35	-2.705087784E-1	-3.134121037E-3	1.075509585E-2
8.36	-2.390958411E-1	-2.330330773E-3	8.443038966E-3
8.370000000000001	-2.081028979E-1	-2.323966582E-3	7.163175485E-3
8.38	-1.784333628E-1	-1.871816925E-3	6.818097788E-3
8.39	-1.533058176E-1	-1.565944536E-3	6.525138176E-3
8.4	-1.320492288E-1	-1.274922241E-3	6.048460282E-3
8.41	-1.099503745E-1	1.109426768E-4	6.345203987E-3
8.42	-9.368442083E-2	2.337595439E-4	6.401240222E-3
8.43	-7.886789462E-2	1.468516780E-3	4.155096866E-3
8.44	-6.569384668E-2	5.915720620E-4	7.826664502E-4
8.45	-5.600702537E-2	9.721741686E-4	-3.684599311E-3
8.46	-4.690865064E-2	1.181154751E-3	-7.718963120E-3
8.47	-3.864333681E-2	5.563855079E-4	-1.071598076E-2
8.48	-3.291946939E-2	-6.654096786E-5	-1.332041556E-2
8.49	-3.040362399E-2	-7.332706915E-4	-1.292364909E-2
8.5	-3.159670576E-2	-6.860447911E-4	-1.211817209E-2
8.51	-3.600776815E-2	-1.639517638E-3	-1.153825279E-2
8.52	-4.135735294E-2	-2.737623051E-3	-9.521945789E-3
8.53	-4.662160919E-2	-2.765941135E-3	-7.257091125E-3
8.540000000000001	-5.026255010E-2	-3.045586116E-3	-6.304228932E-3
8.55	-4.615222855E-2	-3.096024778E-3	-4.249702705E-3
8.56	-3.461528183E-2	-2.593510054E-3	-4.057102480E-3
8.57	-1.228486778E-2	-2.784760909E-3	-4.234093826E-3
8.58	2.161247863E-2	-1.862102503E-3	-3.191878078E-3
8.59	6.392248538E-2	-4.733692250E-4	-3.285517449E-3
8.6	1.195324281E-1	1.226441939E-3	-3.468598820E-3
8.61	1.810297595E-1	1.871389264E-3	-2.123659154E-3
8.620000000000001	2.412544892E-1	1.810545606E-3	-6.489317330E-4
8.63	2.966402808E-1	1.963530987E-3	7.270804274E-4
8.64	3.462041105E-1	2.935287801E-3	2.394092180E-3
8.65	3.829836141E-1	4.322022140E-3	4.206675856E-3
8.66	4.039210144E-1	5.535554686E-3	6.109232582E-3
8.67	4.109389097E-1	6.210247287E-3	7.909406180E-3
8.68	4.004808813E-1	6.530007854E-3	8.485223717E-3
8.69	3.778872680E-1	6.589232634E-3	7.535460596E-3
8.700000000000001	3.421765066E-1	5.078411192E-3	6.700098787E-3
8.71	3.025219288E-1	4.854208664E-3	5.763516670E-3
8.72	2.580478503E-1	3.235840606E-3	5.796599795E-3
8.73	2.174550380E-1	1.760980112E-3	4.871403875E-3
8.74	1.789250175E-1	7.449771091E-4	5.369727074E-3
8.75	1.467249877E-1	-1.040681231E-4	4.773505317E-3
8.76	1.214227293E-1	-7.607406813E-4	4.572729868E-3
8.77	1.018184115E-1	-1.000593018E-3	4.861062785E-3
8.78	8.934124719E-2	-1.246903762E-3	4.007111101E-3
8.790000000000001	8.075603623E-2	-1.852340229E-3	2.760271432E-3
8.8	7.465356167E-2	-1.789285676E-3	1.458167757E-3
8.81	7.029011191E-2	-1.629530644E-3	-1.065955399E-3
8.82	6.802357253E-2	-1.872604480E-3	-4.636294995E-3
8.83	6.727579931E-2	5.430260380E-4	-8.249652241E-3
8.84	6.332307121E-2	1.113823482E-4	-1.190471718E-2
8.85	6.283085265E-2	4.768814612E-4	-1.331187625E-2
8.86	5.958227184E-2	1.581813083E-3	-1.488791918E-2
8.870000000000001	5.587785014E-2	4.015413931E-3	-1.396946097E-2
8.88	5.160080650E-2	3.147234007E-3	-1.246370855E-2
8.89	4.632824206E-2	4.219123122E-3	-1.030289593E-2
8.9	3.969022255E-2	4.358343108E-3	-7.662066367E-3
8.91	2.975320259E-2	3.394520361E-3	-5.654824810E-3
8.92	1.425936679E-2	2.476698168E-3	-4.611494281E-3
8.93	-5.385679280E-3	1.078297748E-3	-4.162100647E-3
8.94	-2.915312874E-2	-1.225007698E-3	-4.488183842E-3
8.950000000000001	-5.910104542E-2	-2.742519163E-3	-3.737958414E-3
8.96	-9.523656521E-2	-2.710100204E-3	-2.714626927E-3
8.97	-1.379844019E-1	-3.282264449E-3	-1.305489211E-3
8.98	-1.799966748E-1	-3.656367238E-3	4.400158533E-4
8.99	-2.243419540E-1	-3.961464493E-3	2.834647459E-3
9.0	-2.700427533E-1	-3.529409782E-3	5.117330436E-3
9.01	-3.105373535E-1	-3.303315803E-3	7.382951027E-3
9.02	-3.463575651E-1	-3.446040730E-3	1.138737423E-2
9.03	-3.742526175E-1	-3.792513465E-3	1.411382570E-2
9.040000000000001	-3.901824201E-1	-4.887066694E-3	1.458624638E-2
9.05	-3.945300004E-1	-5.654881806E-3	1.485599233E-2
9.06	-3.864865935E-1	-5.754102096E-3	1.452984506E-2
9.07	-3.643488935E-1	-5.564516475E-3	1.264001389E-2
9.08	-3.319050802E-1	-5.409313068E-3	1.044024871E-2
9.09	-2.909890934E-1	-4.514789370E-3	9.358462843E-3
9.1	-2.406839736E-1	-3.442998075E-3	7.999640604E-3
9.11	-1.913281474E-1	-3.198927208E-3	6.434808021E-3
9.120000000000001	-1.423231160E-1	-6.661459914E-4	6.574367417E-3
9.13	-9.889963265E-2	1.122352866E-3	5.839712627E-3
9.14	-6.651109361E-2	1.500396696E-3	5.893422565E-3
9.15	-4.599785377E-2	-2.798256127E-4	4.458679485E-3
9.16	-3.697270401E-2	2.581701096E-4	2.088776332E-3
9.17	-3.693788692E-2	1.482270026E-5	1.198914265E-4
9.18	-4.595739038E-2	-3.240305036E-4	-2.057840027E-3
9.19	-6.040167690E-2	-7.231773315E-4	-5.395129128E-3
9.200000000000001	-7.620606621E-2	-1.177141872E-3	-8.870746811E-3
9.21	-8.976789254E-2	-6.179515240E-4	-1.086214059E-2
9.22	-9.899807998E-2	-8.671691782E-4	-1.227957310E-2
9.23	-1.015483661E-1	-1.334914562E-3	-1.281006214E-2
9.24	-9.617832661E-2	-6.658311499E-4	-1.190356866E-2
9.25	-8.423851516E-2	4.123452862E-4	-1.140902926E-2
9.26	-6.419401254E-2	-3.820673374E-4	-9.719810592E-3
9.27	-4.104227242E-2	-1.731037364E-3	-6.917791617E-3
9.28	-1.606683615E-2	-1.362096830E-3	-5.891432518E-3
9.290000000000001	1.345165114E-2	-2.564381356E-3	-3.219889875E-3
9.3	4.030016157E-2	-2.699317292E-3	-3.967394217E-3
9.31	6.921677481E-2	-3.075011992E-3	-4.765774216E-3
9.32	9.914542568E-2	-3.255716392E-3	-5.305410431E-3
9.33	1.290527684E-1	-1.985405464E-3	-5.091705219E-3
9.34	1.605437837E-1	-5.822106520E-4	-3.416769202E-3
9.35	1.931770090E-1	9.384127127E-4	-1.821018385E-3
9.36	2.262671697E-1	2.746018215E-3	-4.918227463E-4
9.370000000000001	2.607348537E-1	4.191639306E-3	2.274823702E-3
9.38	2.949860499E-1	6.427412445E-3	4.977670047E-3
9.39	3.247143078E-1	8.275561378E-3	6.510573356E-3
9.4	3.486547874E-1	8.264334888E-3	8.212526080E-3
9.41	3.665485547E-1	8.759707043E-3	8.664108389E-3
9.42	3.744525127E-1	5.845642819E-3	7.716822045E-3
9.43	3.696534243E-1	5.166412578E-3	7.066998726E-3
9.44	3.531512283E-1	3.169054036E-3	7.160466584E-3
9.450000000000001	3.272944312E-1	1.586186615E-3	6.657013922E-3
9.46	2.908988075E-1	2.011423385E-4	5.201115923E-3
9.47	2.477794111E-1	-1.154511657E-3	4.646375461E-3
9.48	2.033091782E-1	-1.566494009E-3	4.536492516E-3
9.49	1.600971925E-1	-1.493534289E-3	3.819334800E-3
9.5	1.181363906E-1	-9.660381383E-4	4.270594914E-3
9.51	8.137134490E-2	-4.129300773E-4	5.337689508E-3
9.52	5.410888421E-2	-2.837846334E-4	4.767492785E-3
9.53	3.446871980E-2	1.148153113E-4	2.684091582E-3
9.540000000000001	2.666009291E-2	7.356254773E-4	-5.624580589E-5
9.55	2.714561930E-2	8.848455495E-4	-3.240853077E-3
9.56	3.464642179E-2	9.581329110E-4	-5.976534243E-3
9.57	4.991301715E-2	1.540993514E-4	-1.047576874E-2
9.58	6.709528234E-2	-1.410539589E-4	-1.139708971E-2
9.59	8.331847497E-2	5.620929331E-4	-1.196721153E-2
9.6	9.800978214E-2	8.776434083E-4	-1.245930748E-2
9.61	1.055369113E-1	2.290831665E-3	-1.143113625E-2
9.620000000000001	1.051456708E-1	3.002488429E-3	-1.047989447E-2
9.63	9.505277277E-2	3.952546134E-3	-9.105457345E-3
9.64	7.593997907E-2	3.665442755E-3	-7.811975793E-3
9.65	4.699026438E-2	3.431175067E-3	-6.447310274E-3
9.66	1.081174944E-2	2.948544811E-3	-5.362725070E-3
9.67	-3.105731585E-2	2.015744950E-3	-4.710331742E-3
9.68	-7.785489653E-2	1.098588628E-3	-3.840384687E-3
9.69	-1.251813458E-1	-6.667286109E-4	-1.944351251E-3
9.700000000000001	-1.690310149E-1	-2.164425961E-3	-1.671739950E-3
9.71	-2.073359812E-1	-3.034625297E-3	-2.364157002E-4
9.72	-2.422433677E-1	-4.002399180E-3	1.705640881E-3
9.73	-2.690209541E-1	-4.078079327E-3	3.939137703E-3
9.74	-2.898009106E-1	-5.535174679E-3	6.030039382E-3
9.75	-3.065500335E-1	-5.721475776E-3	8.402339983E-3
9.76	-3.167285759E-1	-4.994955074E-3	1.166432564E-2
9.77	-3.232094724E-1	-4.594313529E-3	1.289702307E-2
9.78	-3.254671384E-1	-4.441022530E-3	1.268685534E-2
9.790000000000001	-3.255307736E-1	-4.380010382E-3	1.283557282E-2
9.8	-3.220528386E-1	-4.251636487E-3	1.159818817E-2
9.81	-3.132935180E-1	-4.186085986E-3	1.037841026E-2
9.82	-2.986373399E-1	-3.956423968E-3	9.813003901E-3
9.83	-2.796553364E-1	-3.260031260E-3	8.481272973E-3
9.84	-2.527838952E-1	-2.357255264E-3	8.050451291E-3
9.85	-2.197820382E-1	-1.534580394E-3	7.782212368E-3
9.86	-1.834443428E-1	-2.087879509E-3	8.322669465E-3
9.870000000000001	-1.426413930E-1	-1.246691890E-3	6.872595304E-3
9.88	-1.030475644E-1	-5.822277038E-4	5.033868125E-3
9.89	-6.886564185E-2	4.527457943E-4	4.710912046E-3
9.9	-4.131951756E-2	1.541963227E-3	3.224742759E-3
9.91	-2.478003923E-2	1.222430180E-3	-2.875403957E-4
9.92	-1.663073761E-2	-2.253127407E-4	-3.646207876E-3
9.93	-1.882855457E-2	-1.062026044E-3	-6.281082118E-3
9.94	-2.974633410E-2	-1.570132696E-3	-9.179802894E-3
9.950000000000001	-4.714201819E-2	-1.225124057E-3	-1.150990395E-2
9.96	-6.686715195E-2	-4.407479307E-4	-1.252030273E-2
9.97	-8.593438343E-2	-5.908761432E-4	-1.204273530E-2
9.98	-1.001057260E-1	-1.110160321E-3	-9.954407457E-3
9.99	-1.058381669E-1	-1.676995777E-3	-8.119469987E-3
10.0	-1.011284002E-1	-2.172389227E-3	-7.314913989E-3
10.01	-8.556977646E-2	-1.684364641E-3	-5.505088214E-3
10.02	-5.930550988E-2	-3.037535290E-3	-5.303906397E-3
10.03	-2.099954813E-2	-6.272479169E-4	-4.870553852E-3
10.040000000000001	2.413777802E-2	-1.055242376E-3	-3.578496181E-3
10.05	7.218056586E-2	-4.800732574E-4	-4.421438927E-3
10.06	1.243320172E-1	-1.147912926E-4	-4.651254227E-3
10.07	1.724741699E-1	-5.085455301E-5	-4.023396059E-3
10.08	2.182255818E-1	7.550172080E-4	-2.015243976E-3
10.09	2.587015258E-1	1.571736319E-3	-3.930491269E-4
10.1	2.907622670E-1	3.085402833E-3	1.062930209E-3
10.11	3.148838435E-1	4.350488113E-3	2.797602776E-3
10.120000000000001	3.308837775E-1	4.622069452E-3	4.666059751E-3
10.13	3.380435290E-1	5.789740687E-3	6.184099314E-3
10.14	3.389190229E-1	6.578640461E-3	6.276806855E-3
10.15	3.315846768E-1	6.938121528E-3	8.364663368E-3
10.16	3.179458574E-1	7.666266455E-3	7.145405674E-3
10.17	3.019626445E-1	6.571033869E-3	6.767530641E-3
10.18	2.826284965E-1	4.774362959E-3	6.027025194E-3
10.19	2.598052317E-1	3.377493374E-3	5.322399204E-3
10.200000000000001	2.363384089E-1	1.400776681E-3	5.049945423E-3
10.21	2.135857032E-1	-2.259362227E-4	5.085414354E-3
10.22	1.891134265E-1	-1.277500133E-3	4.993417730E-3
10.23	1.644466890E-1	-2.038506408E-3	5.370613471E-3
10.24	1.412343835E-1	-2.731123205E-3	5.698823367E-3
10.25	1.181742663E-1	-3.450322227E-3	4.591954746E-3
10.26	9.725647177E-2	-2.503882123E-3	3.141353408E-3
10.27	7.913343361E-2	-1.804697346E-3	7.262150375E-4
10.28	6.271345154E-2	-9.121932932E-5	-2.329954336E-3
10.290000000000001	5.035420346E-2	1.245163208E-3	-4.375295014E-3
10.3	4.082226720E-2	2.600785778E-3	-6.771483178E-3
10.31	3.825158744E-2	2.725772188E-3	-9.214736198E-3
10.32	4.105453296E-2	2.985727885E-3	-1.145018338E-2
10.33	4.628132806E-2	2.047676265E-3	-1.175871879E-2
10.34	5.405761163E-2	2.569934125E-3	-1.170976046E-2
10.35	6.246889372E-2	2.060211380E-3	-1.130355277E-2
10.36	6.975862010E-2	1.563090106E-3	-1.018989319E-2
10.370000000000001	7.267558394E-2	1.288602796E-3	-8.334280214E-3
10.38	6.813626906E-2	1.467008840E-3	-7.160235063E-3
10.39	5.566269292E-2	1.500182460E-3	-6.108967185E-3
10.4	3.153337868E-2	9.357264347E-4	-4.935584060E-3
10.41	-3.935370464E-3	2.312936647E-4	-4.601423150E-3
10.42	-4.740201401E-2	-9.208881032E-4	-3.350183614E-3
10.43	-9.871541944E-2	-8.854503308E-6	-2.715761490E-3
10.44	-1.556489724E-1	-1.861960392E-5	-2.078562186E-3
10.450000000000001	-2.136916162E-1	-2.343267261E-3	1.183908581E-4
10.46	-2.650722190E-1	-3.459428706E-3	2.040648244E-3
10.47	-3.074938450E-1	-3.693091436E-3	5.964646583E-3
10.48	-3.390362961E-1	-4.902634225E-3	8.105574445E-3
10.49	-3.586036522E-1	-5.040468729E-3	1.079815418E-2
10.5	-3.650938283E-1	-6.141622241E-3	1.267231310E-2
10.51	-3.595921287E-1	-6.239570645E-3	1.313361808E-2
10.52	-3.429096254E-1	-6.522953824E-3	1.255282526E-2
10.53	-3.206246503E-1	-5.835122261E-3	1.248323071E-2
10.540000000000001	-2.920271637E-1	-4.645773396E-3	1.191168084E-2
10.55	-2.608666500E-1	-4.085939467E-3	1.096683636E-2
10.56	-2.317295683E-1	-3.272436525E-3	9.745340312E-3
10.57	-2.042228520E-1	-1.775026947E-3	7.807682604E-3
10.58	-1.813235290E-1	-1.126397749E-3	7.561438686E-3
10.59	-1.604453269E-1	-1.059271485E-3	7.330935400E-3
10.6	-1.409918541E-1	9.155811786E-5	6.900814524E-3
10.61	-1.263744352E-1	-1.061478949E-3	5.724886442E-3
10.620000000000001	-1.131095681E-1	-6.811852894E-4	6.628308540E-3
10.63	-1.015713414E-1	-6.755417860E-4	4.452771876E-3
10.64	-9.104592481E-2	-6.018916065E-4	6.235761339E-4
10.65	-8.056957843E-2	-8.441445159E-4	-1.920738854E-3
10.66	-7.187106473E-2	2.208486142E-4	-3.790558307E-3
10.67	-6.564138744E-2	7.246100945E-4	-6.969885228E-3
10.68	-6.107917958E-2	-2.145747503E-4	-9.850880547E-3
10.69	-5.777581308E-2	-1.289572873E-3	-1.068700903E-2
10.700000000000001	-5.740394204E-2	-8.475432766E-4	-1.073591785E-2
10.71	-5.797830163E-2	-4.736368607E-4	-1.027711806E-2
10.72	-5.697362767E-2	-1.639857487E-3	-8.975331623E-3
10.73	-5.479711566E-2	-2.526823446E-3	-7.768218409E-3
10.74	-5.148010317E-2	-3.237042341E-3	-6.974018416E-3
10.75	-4.123209726E-2	-3.722345998E-3	-5.883349771E-3
10.76	-2.654200244E-2	-3.350196640E-3	-6.197378654E-3
10.77	-4.900279696E-3	-2.493117317E-3	-5.379023308E-3
10.78	2.597370083E-2	-2.043167746E-3	-5.066981988E-3
10.790000000000001	6.306263396E-2	-1.513735269E-3	-4.042205507E-3
10.8	1.041078667E-1	1.004645432E-3	-3.627649165E-3
10.81	1.470267666E-1	2.439495867E-3	-3.225301229E-3
10.82	1.934827689E-1	3.035976430E-3	-2.253388733E-3
10.83	2.392953230E-1	3.070371652E-3	-1.739435178E-3
10.84	2.811417889E-1	3.974834729E-3	4.710423421E-4
10.85	3.180984219E-1	5.053034246E-3	3.196427321E-3
10.86	3.458519115E-1	5.097554480E-3	4.952669817E-3
10.870000000000001	3.623280002E-1	5.267610590E-3	6.097567227E-3
10.88	3.673242792E-1	5.427210646E-3	6.290372570E-3
10.89	3.613505517E-1	4.860355661E-3	7.124960747E-3
10.9	3.445003322E-1	4.754604189E-3	7.349973582E-3
10.91	3.143344478E-1	4.447991532E-3	5.262761949E-3
10.92	2.833395806E-1	2.650585459E-3	4.723534828E-3
10.93	2.425207256E-1	3.015866796E-3	5.204926416E-3
10.94	2.011414516E-1	1.887125027E-3	5.352823632E-3
10.950000000000001	1.641643525E-1	8.458034659E-4	5.813438900E-3
10.96	1.331785670E-1	-2.929935621E-4	6.377079102E-3
10.97	1.070424260E-1	-6.176049491E-4	5.951120177E-3
10.98	8.859228178E-2	-7.759729361E-4	5.432058419E-3
10.99	7.978578745E-2	-7.408587415E-4	3.015842154E-3
11.0	7.709338023E-2	-9.593161529E-4	9.911917883E-4
11.01	7.974954740E-2	-1.441099985E-3	2.217841696E-4
11.02	8.524972260E-2	-9.381751883E-4	-2.950515855E-3
11.03	9.075113592E-2	-2.395449097E-5	-6.101799294E-3
11.040000000000001	9.497964466E-2	3.040943588E-4	-7.874384413E-3
11.05	9.669717912E-2	6.464738954E-4	-1.007328267E-2
11.06	9.529012745E-2	1.735240639E-3	-1.190558550E-2
11.07	8.740435335E-2	3.218239878E-3	-1.181509088E-2
11.08	7.701294344E-2	4.110547475E-3	-1.131134169E-2
11.09	6.381714013E-2	3.526863144E-3	-1.126395678E-2
11.1	4.869462889E-2	3.975199837E-3	-9.099742253E-3
11.11	3.091447158E-2	3.182498247E-3	-6.915367204E-3
11.120000000000001	1.143354216E-2	2.511186981E-3	-6.180133824E-3
11.13	-9.189068024E-3	1.253103376E-3	-6.180894104E-3
11.14	-3.087122804E-2	-1.521099811E-4	-5.101861834E-3
11.15	-5.634401749E-2	-1.121287436E-3	-4.257383145E-3
11.16	-8.495784571E-2	-1.712846139E-3	-3.500522158E-3
11.17	-1.157309627E-1	-2.488799575E-3	-2.232180460E-3
11.18	-1.504596064E-1	-3.463788041E-3	-1.111825691E-3
11.19	-1.888697191E-1	-3.708784120E-3	1.185401925E-3
11.200000000000001	-2.284225709E-1	-3.890198271E-3	4.327792602E-3
11.21	-2.655737437E-1	-4.173183960E-3	5.293231887E-3
11.22	-2.993130240E-1	-3.770424007E-3	7.426872259E-3
11.23	-3.295839880E-1	-4.037049908E-3	9.589835171E-3
11.24	-3.487691052E-1	-3.894073404E-3	1.093305822E-2
11.25	-3.574727942E-1	-3.737761723E-3	1.185514969E-2
11.26	-3.557056440E-1	-5.029431690E-3	1.191859961E-2
11.27	-3.412437632E-1	-5.589479663E-3	1.127118297E-2
11.28	-3.172807911E-1	-4.610158078E-3	1.102853033E-2
11.290000000000001	-2.860679768E-1	-4.417198337E-3	1.005546620E-2
11.3	-2.503867519E-1	-4.338064091E-3	8.967794560E-3
11.31	-2.106374614E-1	-2.875289343E-3	8.918777281E-3
11.32	-1.709400001E-1	-1.113762034E-3	8.700053318E-3
11.33	-1.356982781E-1	2.911794002E-4	7.766177666E-3
11.34	-1.046681933E-1	1.294233324E-3	7.043765030E-3
11.35	-7.990925013E-2	7.237433498E-4	6.086397902E-3
11.36	-6.584769137E-2	1.538389326E-5	4.870380865E-3
11.370000000000001	-5.965885504E-2	7.652887575E-5	2.873545827E-3
11.38	-5.903562236E-2	-9.696371222E-4	-6.565844116E-4
11.39	-6.474191282E-2	2.366720225E-5	-3.983702416E-3
11.4	-7.375058527E-2	-1.554383934E-3	-4.906175571E-3
11.41	-8.506611352E-2	-8.663872728E-4	-8.078423414E-3
11.42	-9.563478406E-2	-7.643004493E-4	-9.248852382E-3
11.43	-1.032808513E-1	-1.833755988E-3	-9.706536906E-3
11.44	-1.055840757E-1	1.601379419E-4	-9.695889941E-3
11.450000000000001	-1.020371435E-1	1.509393967E-3	-9.325501565E-3
11.46	-9.020166908E-2	3.465909060E-4	-8.533384557E-3
11.47	-7.318218439E-2	-9.275294283E-4	-7.415146054E-3
11.48	-4.952648829E-2	-1.096136234E-3	-6.363869712E-3
11.49	-1.852193562E-2	-1.625749769E-3	-5.785886972E-3
11.5	1.587215923E-2	-1.889539132E-3	-5.382027703E-3
11.51	5.088919827E-2	-1.824770512E-3	-5.068354006E-3
11.52	8.659593155E-2	-3.450830053E-3	-5.271970059E-3
11.53	1.238688456E-1	-2.593982614E-3	-5.370787836E-3
11.540000000000001	1.560159292E-1	-2.138379357E-4	-4.850401635E-3
11.55	1.882728293E-1	8.924907223E-4	-3.586015988E-3
11.56	2.175685319E-1	2.145686375E-3	-2.312569662E-3
11.57	2.425642245E-1	3.605517765E-3	-5.802604676E-4
11.58	2.638002138E-1	5.699795209E-3	1.520596461E-3
11.59	2.835299129E-1	6.070644200E-3	4.040497511E-3
11.6	2.989325012E-1	6.543257501E-3	5.802795928E-3
11.61	3.107725404E-1	6.793139582E-3	6.450878261E-3
11.620000000000001	3.194138050E-1	6.504394860E-3	6.493998293E-3
11.63	3.221532151E-1	5.259834456E-3	6.171869258E-3
11.64	3.181092294E-1	3.356838926E-3	5.995027929E-3
11.65	3.058155703E-1	2.504500172E-3	5.751878419E-3
11.66	2.873224310E-1	1.900612774E-3	4.994350359E-3
11.67	2.613897722E-1	-1.100915267E-4	4.723682646E-3
11.68	2.274899516E-1	-6.542754739E-4	5.576925581E-3
11.69	1.909767125E-1	-1.189772003E-3	5.265593112E-3
11.700000000000001	1.541933954E-1	-1.725140278E-3	3.912491937E-3
11.71	1.188100305E-1	-1.266328557E-3	5.632291084E-3
11.72	8.739418055E-2	2.851116660E-4	4.691349194E-3
11.73	6.328505808E-2	-3.953292716E-6	3.135308615E-3
11.74	4.858775342E-2	1.834858731E-4	1.240389888E-3
11.75	4.258509693E-2	6.841483947E-4	-1.500758087E-3
11.76	4.588631244E-2	7.785861704E-4	-4.163773971E-3
11.77	5.522542811E-2	5.199025162E-4	-6.341036048E-3
11.78	6.906653939E-2	4.141942066E-4	-8.471369306E-3
11.790000000000001	8.458706232E-2	8.211443476E-4	-1.048634718E-2
11.8	1.004350990E-1	1.211473568E-5	-1.056201532E-2
11.81	1.093634811E-1	8.606795826E-4	-1.172563052E-2
11.82	1.112310114E-1	2.389541401E-3	-1.021039127E-2
11.83	1.043800431E-1	2.194605326E-3	-9.555735290E-3
11.84	8.645025314E-2	3.111925625E-3	-9.014069123E-3
11.85	6.051495162E-2	2.905659353E-3	-7.976926919E-3
11.86	2.800683286E-2	2.033115973E-3	-6.595087488E-3
11.870000000000001	-1.114216262E-2	1.516418489E-3	-5.084262406E-3
11.88	-5.328577450E-2	4.905660252E-4	-4.229552396E-3
11.89	-9.284345314E-2	-5.819923777E-4	-3.974271497E-3
11.9	-1.334080153E-1	-1.149043459E-3	-2.812825897E-3
11.91	-1.757333136E-1	-1.542168739E-3	-1.438551327E-3
11.92	-2.118144035E-1	-2.649868709E-3	4.910344956E-4
11.93	-2.405845829E-1	-2.819466162E-3	3.049338912E-3
11.94	-2.642117293E-1	-3.974586399E-3	4.921689328E-3
11.950000000000001	-2.843282162E-1	-5.258243538E-3	6.682643406E-3
11.96	-2.967170629E-1	-6.213707789E-3	9.137521034E-3
11.97	-3.043928297E-1	-4.165548935E-3	1.093974836E-2
11.98	-3.081986128E-1	-3.457667648E-3	1.145694318E-2
11.99	-3.048736617E-1	-4.038586277E-3	1.141197673E-2
12.0	-2.979839240E-1	-4.339914395E-3	1.029454974E-2
12.01	-2.876388524E-1	-3.905804806E-3	9.906441789E-3
12.02	-2.730433889E-1	-3.290936602E-3	9.707796900E-3
12.030000000000001	-2.551057002E-1	-3.062443711E-3	8.359040700E-3
12.040000000000001	-2.347746914E-1	-3.050879937E-3	7.517038134E-3
12.05	-2.110527218E-1	-2.297818092E-3	8.313119981E-3
12.06	-1.848464684E-1	-7.142497009E-4	8.788446502E-3
12.07	-1.580590689E-1	-1.335500078E-4	7.326535608E-3
12.08	-1.341364199E-1	7.179992769E-5	7.449132910E-3
12.09	-1.115158695E-1	-2.457218080E-4	5.958326343E-3
12.1	-8.857252164E-2	1.227390537E-3	3.610510005E-3
12.11	-7.240910862E-2	1.143195913E-3	-1.281878894E-4
12.120000000000001	-6.124502942E-2	1.731425540E-4	-2.113335987E-3
12.13	-5.374937868E-2	-4.741172981E-4	-4.990193356E-3
12.14	-5.207624908E-2	-1.136276954E-3	-7.352559422E-3
12.15	-5.601554327E-2	-9.408835802E-4	-7.899938484E-3
12.16	-6.412106754E-2	-1.861118330E-3	-9.155654639E-3
12.17	-7.317391654E-2	-2.373439921E-3	-1.059493595E-2
12.18	-8.245938388E-2	-2.035997704E-3	-1.015342254E-2
12.19	-8.882288670E-2	-1.405678172E-3	-8.329527833E-3
12.200000000000001	-8.919001483E-2	-7.483539714E-4	-7.177483885E-3
12.21	-8.427849576E-2	-4.941590297E-4	-7.337111123E-3
12.22	-6.775043472E-2	-1.345776294E-3	-6.886667432E-3
12.23	-4.372139169E-2	-1.200487769E-3	-5.259325058E-3
12.24	-9.695903577E-3	-7.429992796E-4	-5.726638626E-3
12.25	3.216009468E-2	-4.755155358E-4	-5.616632963E-3
12.26	7.848210599E-2	-1.968307360E-3	-5.937399620E-3
12.27	1.312931672E-1	-6.039446304E-4	-4.835057047E-3
12.280000000000001	1.819393372E-1	9.201716495E-4	-4.277328761E-3
12.290000000000001	2.259534771E-1	1.529738727E-3	-1.991525467E-3
12.3	2.634138003E-1	2.361372114E-3	-2.188384977E-4
12.31	2.909991555E-1	3.022253756E-3	1.461076751E-3
12.32	3.108809936E-1	4.250106446E-3	2.716418080E-3
12.33	3.196261424E-1	4.945151936E-3	4.023805198E-3
12.34	3.190592667E-1	4.811598265E-3	5.348886951E-3
12.35	3.109497458E-1	5.164950321E-3	5.973523187E-3
12.36	2.987924505E-1	5.588564001E-3	6.267597925E-3
12.370000000000001	2.822963862E-1	4.669655420E-3	6.140140759E-3
12.38	2.631687654E-1	3.952709531E-3	5.388331873E-3
12.39	2.439329496E-1	3.202713149E-3	6.274652698E-3
12.4	2.256719763E-1	2.369875116E-3	5.924083615E-3
12.41	2.042851249E-1	1.011380659E-3	5.693821790E-3
12.42	1.886163032E-1	-1.188274800E-4	5.153497829E-3
12.43	1.721653071E-1	-8.008960030E-4	3.913388496E-3
12.44	1.538246087E-1	-1.906418536E-3	5.306653792E-3
12.450000000000001	1.390277999E-1	-1.928673079E-3	4.924903469E-3
12.46	1.225020790E-1	-1.549563471E-3	3.626751584E-3
12.47	1.056432526E-1	-2.054138158E-3	2.419394805E-3
12.48	9.150190294E-2	-1.996766204E-3	-9.138101397E-6
12.49	7.940443009E-2	-3.779105845E-4	-2.329592521E-3
12.5	7.079459562E-2	9.009080767E-4	-4.774155907E-3
12.51	6.561742569E-2	1.414728287E-3	-7.783272848E-3
12.52	6.361116023E-2	2.631553377E-3	-9.958677497E-3
12.530000000000001	6.465825642E-2	4.442188654E-3	-1.033903560E-2
12.540000000000001	6.916193586E-2	3.222258121E-3	-9.694665084E-3
12.55	7.145655579E-2	2.705579869E-3	-1.039261903E-2
12.56	7.194908489E-2	2.767239380E-3	-1.011343638E-2
12.57	7.046742851E-2	2.833046400E-3	-8.846858246E-3
12.58	6.372999218E-2	2.873724387E-3	-7.918848748E-3
12.59	4.941384196E-2	1.364215218E-3	-7.231811812E-3
12.6	2.951645146E-2	-3.960721659E-4	-6.568041210E-3
12.61	1.452283016E-3	-9.463002858E-4	-6.219653992E-3
12.620000000000001	-3.441447457E-2	-7.976341037E-4	-5.463538770E-3
12.63	-7.579716424E-2	-6.393603913E-4	-4.134663769E-3
12.64	-1.201313539E-1	-5.431293519E-4	-2.674787403E-3
12.65	-1.659260337E-1	-5.057804104E-4	-1.074175985E-3
12.66	-2.093072156E-1	-2.015524504E-3	1.784459324E-3
12.67	-2.514324977E-1	-1.804376439E-3	3.456647242E-3
12.68	-2.850515518E-1	-4.506161376E-3	5.177388435E-3
12.69	-3.105584003E-1	-3.984447220E-3	7.873101031E-3
12.700000000000001	-3.296097000E-1	-5.316443486E-3	9.812029488E-3
12.71	-3.353835823E-1	-6.155516108E-3	1.066036036E-2
12.72	-3.313998009E-1	-7.009105644E-3	1.062898641E-2
12.73	-3.172618095E-1	-5.581688846E-3	1.060540363E-2
12.74	-2.962649432E-1	-4.955016430E-3	1.109834180E-2
12.75	-2.694007071E-1	-5.169578261E-3	1.003792076E-2
12.76	-2.393063431E-1	-4.328610116E-3	9.084806608E-3
12.77	-2.094750683E-1	-2.760354298E-3	8.728941707E-3
12.780000000000001	-1.829643091E-1	-2.088600007E-3	7.911945317E-3
12.790000000000001	-1.586044146E-1	-1.118011779E-3	8.281912538E-3
12.8	-1.381359079E-1	-5.899227039E-4	7.518305207E-3
12.81	-1.231715689E-1	-1.524381109E-3	7.068551863E-3
12.82	-1.118299043E-1	-2.823579187E-4	6.181524959E-3
12.83	-1.069248829E-1	-6.352166972E-4	4.969582801E-3
12.84	-1.039364960E-1	-7.876195176E-4	3.401266019E-3
12.85	-1.029353799E-1	-8.959896011E-5	1.787076362E-4
12.86	-1.010847994E-1	-6.335840309E-4	-1.544913982E-3
12.870000000000001	-9.974171608E-2	-1.100804389E-3	-3.754161830E-3
12.88	-9.638892251E-2	-7.534608807E-4	-6.889157016E-3
12.89	-9.176705306E-2	-7.869924260E-4	-9.202140446E-3
12.9	-8.528086532E-2	-6.762611781E-4	-9.683098592E-3
12.91	-7.694931778E-2	-1.051053717E-3	-9.367682339E-3
12.92	-6.776243785E-2	-1.586853594E-3	-9.496035277E-3
12.93	-5.802437763E-2	-9.622906765E-4	-8.614013453E-3
12.94	-4.683033319E-2	-1.391308609E-3	-7.064685214E-3
12.950000000000001	-3.477084380E-2	-2.326075860E-3	-7.293035344E-3
12.96	-1.974368068E-2	-2.109917101E-3	-6.685501023E-3
12.97	-1.060404576E-3	-1.277856778E-3	-5.491211794E-3
12.98	2.228773673E-2	-9.687863650E-4	-6.707394001E-3
12.99	4.807041140E-2	-5.352790870E-4	-5.486626797E-3
13.0	7.929325964E-2	-7.405619464E-4	-5.512156243E-3
13.01	1.181913461E-1	-3.010951389E-4	-4.705795220E-3
13.02	1.573635162E-1	1.017857868E-3	-2.754725986E-3
13.030000000000001	1.982398417E-1	2.815664194E-3	-1.274935001E-3
13.040000000000001	2.366947907E-1	3.407237394E-3	-3.282911931E-4
13.05	2.719098708E-1	4.155062389E-3	1.417768491E-3
13.06	3.030322487E-1	5.240135792E-3	3.144521161E-3
13.07	3.243090237E-1	5.821689418E-3	3.976105602E-3
13.08	3.336742985E-1	5.977951188E-3	4.877850495E-3
13.09	3.325265671E-1	5.515034353E-3	5.286904263E-3
13.1	3.226731302E-1	4.581188019E-3	5.122125333E-3
13.11	3.036342129E-1	3.113760110E-3	5.157155414E-3
13.120000000000001	2.772359983E-1	3.072441939E-3	5.893204238E-3
13.13	2.453298506E-1	6.628414391E-4	4.331026619E-3
13.14	2.137068785E-1	9.775675296E-4	5.788020708E-3
13.15	1.805986371E-1	-9.579557321E-4	4.976353889E-3
13.16	1.519413437E-1	-3.273801778E-4	5.880278011E-3
13.17	1.277473980E-1	-7.108665218E-4	5.906188278E-3
13.18	1.094292476E-1	-9.898817747E-4	5.168286477E-3
13.19	9.681838041E-2	-4.013709720E-5	3.874350035E-3
13.200000000000001	9.074543974E-2	2.710263353E-4	2.547686120E-3
13.21	8.926417218E-2	-9.866759294E-4	6.417087227E-4
13.22	9.137498970E-2	-1.018390583E-3	-1.294045257E-3
13.23	9.545262698E-2	-7.772729232E-4	-3.746411993E-3
13.24	1.000290260E-1	-7.574151399E-4	-6.132511489E-3
13.25	1.041605596E-1	4.098090977E-4	-7.365895647E-3
13.26	1.070600481E-1	6.423078960E-4	-1.039530885E-2
13.27	1.054262957E-1	1.681444792E-3	-1.079911150E-2
13.280000000000001	9.915115659E-2	2.233420751E-3	-1.059392893E-2
13.290000000000001	8.859455971E-2	3.336366356E-3	-1.019591905E-2
13.3	7.496454384E-2	3.265416310E-3	-1.041079974E-2
13.31	5.522238472E-2	3.719397762E-3	-8.421476098E-3
13.32	3.378804647E-2	2.759457503E-3	-7.446439021E-3
13.33	7.759158727E-3	2.178606927E-3	-7.279462293E-3
13.34	-2.126256658E-2	1.428348653E-3	-6.092696246E-3
13.35	-5.115384349E-2	3.763754409E-4	-5.336525877E-3
13.36	-8.128318560E-2	-1.048020191E-3	-5.297079815E-3
13.370000000000001	-1.126816688E-1	-2.501713996E-3	-3.579649316E-3
13.38	-1.432132693E-1	-2.652545727E-3	-1.738169380E-3
13.39	-1.736838684E-1	-3.783574716E-3	6.818768694E-5
13.4	-2.042790139E-1	-3.286407904E-3	1.336870904E-3
13.41	-2.305839134E-1	-3.469455029E-3	5.082666561E-3
13.42	-2.561868125E-1	-3.727120133E-3	6.103653268E-3
13.43	-2.789123725E-1	-3.017936049E-3	7.974646240E-3
13.44	-2.965770328E-1	-4.313471616E-3	9.572705775E-3
13.450000000000001	-3.090500984E-1	-3.676811918E-3	1.022356535E-2
13.46	-3.136915123E-1	-3.649394880E-3	1.031863918E-2
13.47	-3.117367996E-1	-3.366060485E-3	9.857730526E-3
13.48	-3.002887552E-1	-4.278106163E-3	1.032886984E-2
13.49	-2.825372829E-1	-3.740353991E-3	9.764515462E-3
13.5	-2.583742463E-1	-2.919491469E-3	9.597422370E-3
13.51	-2.292836513E-1	-2.795179233E-3	9.523965772E-3
13.52	-1.965767524E-1	-2.310172105E-3	8.556388965E-3
13.530000000000001	-1.631895117E-1	-4.952657148E-4	8.360712325E-3
13.540000000000001	-1.303427376E-1	-8.172814968E-4	6.980917212E-3
13.55	-1.037836823E-1	-9.033683083E-4	5.593095070E-3
13.56	-8.428907953E-2	-2.784375121E-4	5.112506470E-3
13.57	-7.274766618E-2	8.999803922E-4	3.724679526E-3
13.58	-6.913651469E-2	6.106484049E-4	4.500250317E-4
13.59	-7.129201898E-2	4.679724708E-4	-2.096251419E-3
13.6	-7.994104389E-2	-4.482688423E-4	-4.324704057E-3
13.61	-9.070281959E-2	-1.590888411E-3	-5.726674584E-3
13.620000000000001	-1.020997600E-1	-1.948604533E-3	-6.733698150E-3
13.63	-1.112600626E-1	-2.062750295E-3	-7.903760975E-3
13.64	-1.149962380E-1	-1.886968549E-3	-8.159569359E-3
13.65	-1.137516685E-1	-8.777832900E-4	-7.418045545E-3
13.66	-1.041316390E-1	-6.971546657E-4	-8.289859141E-3
13.67	-8.799989316E-2	-8.386364635E-4	-7.652813951E-3
13.68	-6.581206976E-2	-1.188655169E-3	-7.577521416E-3
13.69	-3.598256795E-2	-1.977909296E-3	-8.018785465E-3
13.700000000000001	-5.398273616E-3	-1.591941281E-3	-6.341566796E-3
13.71	3.095332296E-2	-1.642741594E-3	-6.333456612E-3
13.72	6.764415169E-2	-1.419662676E-3	-6.014535456E-3
13.73	1.031234701E-1	2.164550620E-4	-5.534335931E-3
13.74	1.349170240E-1	-4.124179126E-4	-5.412718496E-3
13.75	1.661151375E-1	-6.759512176E-4	-4.562779029E-3
13.76	1.941054599E-1	-3.606200976E-4	-3.892961336E-3
13.77	2.191472544E-1	1.150817186E-3	-2.034241862E-3
13.780000000000001	2.420643337E-1	2.859182299E-3	6.469826251E-4
13.790000000000001	2.607599129E-1	4.037921040E-3	2.277767018E-3
13.8	2.746927334E-1	4.945872173E-3	3.491722571E-3
13.81	2.845283208E-1	5.596951979E-3	4.914463400E-3
13.82	2.908911059E-1	6.480276027E-3	5.121551376E-3
13.83	2.914691885E-1	5.952891596E-3	5.795089015E-3
13.84	2.881296080E-1	4.733638646E-3	5.270774477E-3
13.85	2.773675849E-1	2.828985464E-3	4.617074030E-3
13.86	2.640465938E-1	3.056015001E-3	4.692269170E-3
13.870000000000001	2.457716789E-1	1.065623448E-3	5.419717079E-3
13.88	2.229830870E-1	6.438964125E-4	6.294653317E-3
13.89	1.991311728E-1	-2.021947641E-3	6.747039458E-3
13.9	1.727334197E-1	-2.247875044E-3	6.273503939E-3
13.91	1.470613188E-1	-1.260934013E-3	5.587343790E-3
13.92	1.235965863E-1	-4.666983527E-4	3.974434190E-3
13.93	1.024630163E-1	-1.548730806E-4	2.911256915E-3
13.94	8.626743883E-2	2.970667196E-5	2.146601632E-3
13.950000000000001	7.613483793E-2	7.325912713E-4	-4.786402135E-4
13.96	7.111013394E-2	1.182530969E-3	-3.027204196E-3
13.97	7.083366244E-2	9.028576887E-4	-5.506119873E-3
13.98	7.548292338E-2	2.169094669E-3	-7.282125692E-3
13.99	8.299077856E-2	2.500644225E-3	-8.242227830E-3
14.0	9.075212618E-2	2.061400385E-3	-1.005451807E-2
14.01	9.925033129E-2	1.051526207E-3	-9.830501072E-3
14.02	1.034363833E-1	1.306001530E-3	-1.015597796E-2
14.030000000000001	1.022986189E-1	1.716439677E-3	-8.965788447E-3
14.040000000000001	9.444948616E-2	2.122370136E-3	-8.777031871E-3
14.05	7.664838463E-2	2.028700821E-3	-8.031011142E-3
14.06	5.176700357E-2	1.987082032E-3	-7.164166884E-3
14.07	2.023908314E-2	1.667654256E-3	-6.634287373E-3
14.08	-1.842133396E-2	1.211403845E-3	-6.202317693E-3
14.09	-6.104661480E-2	4.222204132E-4	-5.194189261E-3
14.1	-1.033367570E-1	-9.666187757E-4	-4.344434071E-3
14.11	-1.451399182E-1	-1.264084758E-3	-3.403460043E-3
14.120000000000001	-1.859501676E-1	-1.711080864E-3	-1.563196013E-3
14.13	-2.211964011E-1	-2.486664292E-3	2.881610307E-4
14.14	-2.469504575E-1	-2.764868353E-3	2.332061307E-3
14.15	-2.647896692E-1	-3.709545804E-3	4.303921411E-3
14.16	-2.786771979E-1	-4.414154547E-3	6.357835903E-3
14.17	-2.835604582E-1	-5.106628998E-3	8.806119209E-3
14.18	-2.822299464E-1	-4.436542647E-3	9.123058758E-3
14.19	-2.784160643E-1	-4.255465662E-3	1.022459598E-2
14.200000000000001	-2.714444007E-1	-3.816083545E-3	1.053980306E-2
14.21	-2.617289712E-1	-3.868924575E-3	9.583945246E-3
14.22	-2.494491454E-1	-3.465362782E-3	8.884129012E-3
14.23	-2.361785959E-1	-3.019841541E-3	8.926190855E-3
14.24	-2.229164257E-1	-3.142945666E-3	8.896134717E-3
14.25	-2.094329544E-1	-2.379174773E-3	8.390723591E-3
14.26	-1.927478504E-1	-1.982524726E-3	8.950887618E-3
14.27	-1.736091408E-1	-4.772003135E-4	8.254513984E-3
14.280000000000001	-1.534912183E-1	-1.558530937E-3	7.812629429E-3
14.290000000000001	-1.339458234E-1	-6.964144442E-4	5.676567060E-3
14.3	-1.146820407E-1	-3.484716544E-4	4.514568093E-3
14.31	-1.000312571E-1	-1.835284058E-4	2.198649851E-3
14.32	-8.848071491E-2	-5.448004953E-4	2.896526321E-4
14.33	-7.973362627E-2	-9.464308990E-4	-2.019147976E-3
14.34	-7.526863033E-2	-9.102054619E-4	-3.734641464E-3
14.35	-7.457558308E-2	-8.607060910E-4	-5.194996694E-3
14.36	-7.716556006E-2	-1.515796864E-3	-6.961832269E-3
14.370000000000001	-8.126355874E-2	-2.402134264E-3	-8.193635711E-3
14.38	-8.683581381E-2	-2.019184804E-3	-8.640111123E-3
14.39	-8.885977963E-2	-1.403122539E-3	-8.411454330E-3
14.4	-8.769433902E-2	-1.363140009E-3	-7.979143599E-3
14.41	-8.119619327E-2	-1.417957170E-3	-7.278119585E-3
14.42	-6.687275503E-2	-1.133210524E-3	-7.660307640E-3
14.43	-4.545013928E-2	-1.285612717E-3	-6.776538529E-3
14.44	-1.655770438E-2	-1.444133459E-3	-7.085979084E-3
14.450000000000001	1.672094699E-2	-2.823017665E-4	-6.286339259E-3
14.46	5.396567433E-2	-3.266662360E-4	-6.965416143E-3
14.47	9.750545940E-2	-3.479610644E-4	-6.086354473E-3
14.48	1.401008318E-1	-1.683693404E-4	-4.846391059E-3
14.49	1.797714028E-1	6.124420918E-4	-3.223089829E-3
14.5	2.172564715E-1	1.576669511E-3	-1.597224155E-3
14.51	2.507283610E-1	2.370907282E-3	-3.801058614E-4
14.52	2.745629403E-1	3.452439063E-3	9.236607402E-4
14.530000000000001	2.906137646E-1	4.100466768E-3	1.804621282E-3
14.540000000000001	2.994422360E-1	4.261533025E-3	3.261311156E-3
14.55	2.998471167E-1	5.127165707E-3	4.270102222E-3
14.56	2.923087791E-1	5.216187632E-3	4.651587042E-3
14.57	2.777105734E-1	5.496650320E-3	6.180771764E-3
14.58	2.587258361E-1	3.557557144E-3	6.073053031E-3
14.59	2.401520100E-1	2.708046571E-3	5.854592567E-3
14.6	2.182012361E-1	2.678210531E-3	4.976364076E-3
14.61	1.987254886E-1	1.397703835E-3	5.852855216E-3
14.620000000000001	1.803766386E-1	6.399982359E-4	6.386672186E-3
14.63	1.636631254E-1	4.378545940E-6	6.030441899E-3
14.64	1.501127274E-1	7.507633826E-7	5.361612899E-3
14.65	1.393171910E-1	-1.727550874E-4	5.135649348E-3
14.66	1.302935538E-1	-9.244924663E-4	4.421237564E-3
14.67	1.230306746E-1	-1.311553361E-3	2.949225234E-3
14.68	1.168803278E-1	-1.338926288E-3	1.153372517E-3
14.69	1.112212602E-1	-1.462880079E-3	-1.603594129E-3
14.700000000000001	1.054318019E-1	2.236429872E-4	-3.909049301E-3
14.71	9.910868634E-2	1.293480079E-3	-6.980653018E-3
14.72	9.276660778E-2	1.833812018E-3	-7.191955218E-3
14.73	8.762261529E-2	2.620883888E-3	-9.263799855E-3
14.74	8.230229285E-2	3.473232374E-3	-9.602465386E-3
14.75	7.739396559E-2	3.787713399E-3	-9.799197561E-3
14.76	7.097364408E-2	3.766037712E-3	-9.506362853E-3
14.77	6.457693764E-2	3.612359192E-3	-8.549461679E-3
14.780000000000001	5.579148895E-2	3.308046022E-3	-7.962696691E-3
14.790000000000001	4.474772640E-2	2.340058865E-3	-7.343139345E-3
14.8	2.901842696E-2	6.902039509E-4	-6.840041295E-3
14.81	6.594900929E-3	-4.584420924E-4	-6.962407409E-3
14.82	-1.996996361E-2	-9.585720007E-4	-6.295045964E-3
14.83	-5.254026337E-2	-1.260299742E-3	-5.242052959E-3
14.84	-8.982930071E-2	-1.470294017E-3	-4.185495685E-3
14.85	-1.324299984E-1	-1.250361842E-3	-3.057557546E-3
14.86	-1.717783214E-1	-1.747141352E-3	-2.140237790E-3
14.870000000000001	-2.095095892E-1	-1.502709140E-3	-2.367119280E-4
14.88	-2.466300342E-1	-2.139728865E-3	4.662341738E-3
14.89	-2.727472934E-1	-4.389325841E-3	5.136285072E-3
14.9	-2.939070233E-1	-4.017593621E-3	7.258663900E-3
14.91	-3.045743280E-1	-4.408922311E-3	8.975646512E-3
14.92	-3.060307748E-1	-4.418582852E-3	1.034728173E-2
14.93	-2.994237328E-1	-5.259784470E-3	1.000558642E-2
14.94	-2.838875267E-1	-5.308162521E-3	9.344357711E-3
14.950000000000001	-2.629566529E-1	-4.422983440E-3	9.415435161E-3
14.96	-2.388128090E-1	-3.831627206E-3	9.481924283E-3
14.97	-2.129865390E-1	-3.464532095E-3	8.391471914E-3
14.98	-1.878038262E-1	-1.782588271E-3	7.253291792E-3
14.99	-1.670068893E-1	-1.788265570E-3	7.372460609E-3
15.0	-1.488395662E-1	-3.093973118E-4	7.754683121E-3
15.01	-1.328638581E-1	1.843962201E-4	7.301310249E-3
15.02	-1.232743108E-1	-3.934618375E-4	5.451395758E-3
15.030000000000001	-1.165946770E-1	-4.032395299E-4	5.727498625E-3
15.040000000000001	-1.137112671E-1	-7.182882068E-4	4.082439308E-3
15.05	-1.122755536E-1	-2.152812398E-3	2.286473853E-3
15.06	-1.117510461E-1	-2.637560583E-3	4.161659759E-4
15.07	-1.112538784E-1	-1.545922730E-3	-2.733912261E-3
15.08	-1.104571040E-1	-1.181590498E-3	-5.158882529E-3
15.09	-1.087910166E-1	-1.645198277E-3	-5.518064729E-3
15.1	-1.048569873E-1	-8.211406903E-4	-7.154097455E-3
15.11	-9.917473353E-2	-9.384413503E-4	-8.124274632E-3
15.120000000000001	-9.035052583E-2	-1.337775466E-3	-7.805913604E-3
15.13	-7.977564399E-2	-4.816074595E-4	-6.870503176E-3
15.14	-6.470219726E-2	-1.760170780E-3	-7.282635305E-3
15.15	-4.747980718E-2	-2.273375594E-3	-7.097910855E-3
15.16	-2.708207998E-2	-2.471091910E-3	-6.463160271E-3
15.17	-4.391864437E-3	-2.458190144E-3	-6.735694558E-3
15.18	1.986117678E-2	-1.602755519E-3	-7.018942245E-3
15.19	4.662349323E-2	-1.007624269E-3	-6.830950434E-3
15.200000000000001	7.669039980E-2	-5.893676178E-4	-6.468763247E-3
15.21	1.073880800E-1	8.526996212E-4	-6.084820046E-3
15.22	1.376310952E-1	1.739410263E-3	-4.696182455E-3
15.23	1.695887842E-1	2.045639339E-3	-3.476734587E-3
15.24	2.006337180E-1	2.993386196E-3	-1.469814281E-3
15.25	2.283487579E-1	4.018361962E-3	1.275598417E-3
15.26	2.543779461E-1	4.059392448E-3	2.107739148E-3
15.27	2.758863739E-1	4.064790988E-3	2.639572261E-3
15.280000000000001	2.905204752E-1	3.886821354E-3	4.044819130E-3
15.290000000000001	2.968780960E-1	3.265356075E-3	3.646542454E-3
15.3	2.979050424E-1	3.610802067E-3	3.766308373E-3
15.31	2.903871622E-1	2.885216908E-3	4.506097084E-3
15.32	2.743969918E-1	2.446556225E-3	4.915781802E-3
15.33	2.523119054E-1	1.951565384E-3	4.722140500E-3
15.34	2.261643148E-1	1.955506928E-3	4.758574260E-3
15.35	1.978701196E-1	1.163287169E-3	5.333190594E-3
15.36	1.699369417E-1	5.068952583E-4	6.342009720E-3
15.370000000000001	1.448020198E-1	5.333212665E-5	6.396655781E-3
15.38	1.224710555E-1	-1.392331713E-3	4.937577002E-3
15.39	1.075162570E-1	-1.210534017E-3	4.292200779E-3
15.4	9.819632163E-2	-9.163754036E-4	4.303980632E-3
15.41	9.459029701E-2	-1.496171518E-3	2.611813789E-3
15.42	9.655055748E-2	1.471933197E-4	8.713773736E-5
15.43	1.025361060E-1	8.476764058E-4	-1.677380164E-3
15.44	1.089170567E-1	1.012159042E-3	-3.820835307E-3
15.450000000000001	1.148835566E-1	1.033074300E-3	-5.638818409E-3
15.46	1.192075703E-1	1.612020455E-3	-7.607671625E-3
15.47	1.194822140E-1	1.661549109E-3	-8.362689747E-3
15.48	1.139070746E-1	1.663831515E-3	-8.812377549E-3
15.49	1.034983984E-1	2.377085697E-3	-9.401846075E-3
15.5	8.848225518E-2	2.608377005E-3	-8.979585209E-3
15.51	6.961666972E-2	2.293931798E-3	-7.944029501E-3
15.52	4.606059774E-2	2.627370733E-3	-7.823477923E-3
15.530000000000001	2.031744603E-2	1.946385909E-3	-7.751039414E-3
15.540000000000001	-6.715978244E-3	1.920177996E-3	-6.496027732E-3
15.55	-3.750014037E-2	4.311807895E-6	-6.484186420E-3
15.56	-6.935792654E-2	5.807210553E-4	-5.016927052E-3
15.57	-9.622583208E-2	-1.057062935E-3	-4.549988818E-3
15.58	-1.250231180E-1	-1.327620014E-3	-4.340948815E-3
15.59	-1.533578711E-1	-3.157254338E-3	-2.596777557E-3
15.6	-1.795316111E-1	-2.592254551E-3	-2.568255672E-4
15.610000000000001	-2.050519780E-1	-4.008436489E-3	1.624327526E-3
15.620000000000001	-2.273800601E-1	-4.593922984E-3	3.756711431E-3
15.63	-2.459432806E-1	-4.357654166E-3	5.411135223E-3
15.64	-2.621766897E-1	-4.010860745E-3	6.982169973E-3
15.65	-2.740371726E-1	-4.202669461E-3	8.706380317E-3
15.66	-2.795091224E-1	-4.657584377E-3	9.091982700E-3
15.67	-2.792799853E-1	-3.967328072E-3	8.920154295E-3
15.68	-2.740979621E-1	-3.398218052E-3	9.353373953E-3
15.69	-2.617131809E-1	-2.970099750E-3	9.103374283E-3
15.700000000000001	-2.461660323E-1	-3.435832636E-3	8.105060790E-3
15.71	-2.236885179E-1	-1.703079076E-3	9.027248000E-3
15.72	-2.020413529E-1	-1.782612225E-3	9.621709428E-3
15.73	-1.780374560E-1	-1.712607904E-3	9.127888923E-3
15.74	-1.536562970E-1	-1.370710469E-3	7.676487262E-3
15.75	-1.335285167E-1	-1.241998758E-3	7.294919264E-3
15.76	-1.154746115E-1	-1.351899016E-3	5.824324240E-3
15.77	-1.003440863E-1	-1.391290005E-4	4.910134264E-3
15.780000000000001	-9.145162316E-2	1.324043468E-4	3.199110597E-3
15.790000000000001	-8.854596773E-2	-4.257233613E-4	-2.884201375E-4
15.8	-8.967095377E-2	-7.433113433E-4	-2.698915631E-3
15.81	-9.405501690E-2	-8.327657361E-4	-3.888611047E-3
15.82	-1.007178673E-1	-9.027482956E-4	-4.949827088E-3
15.83	-1.067832951E-1	-1.314924272E-3	-5.940740688E-3
15.84	-1.120784509E-1	-1.682416778E-3	-6.523963286E-3
15.85	-1.135888137E-1	-2.168863341E-3	-6.987786658E-3
15.860000000000001	-1.102791032E-1	-1.015994414E-3	-6.570952609E-3
15.870000000000001	-1.005518923E-1	-9.191914792E-4	-7.794694804E-3
15.88	-8.436766598E-2	-1.658020481E-3	-6.351103539E-3
15.89	-5.893017563E-2	-1.202426152E-3	-6.176935339E-3
15.9	-2.869306998E-2	-1.241405326E-3	-6.650680371E-3
15.91	5.063693147E-3	-1.411749035E-3	-7.137205781E-3
15.92	4.016179671E-2	-8.542648486E-4	-6.517838480E-3
15.93	7.748719153E-2	-1.445056010E-4	-6.034700097E-3
15.94	1.138634017E-1	2.419713628E-4	-5.347723938E-3
15.950000000000001	1.475442378E-1	1.001328360E-3	-4.743943650E-3
15.96	1.773494079E-1	1.709460418E-3	-4.226141151E-3
15.97	2.018374771E-1	1.892478318E-3	-3.076635880E-3
15.98	2.230994147E-1	2.408710603E-3	-1.352382233E-3
15.99	2.391962736E-1	3.297807523E-3	-2.644002900E-4
16.0	2.492666905E-1	3.111747538E-3	9.355552671E-4
16.01	2.556940370E-1	3.649921462E-3	2.667493640E-3
16.02	2.592972037E-1	4.333744436E-3	4.012094785E-3
16.03	2.597020951E-1	3.987507210E-3	4.097161537E-3
16.04	2.569903026E-1	3.516592112E-3	4.702775442E-3
16.05	2.518797486E-1	3.874774612E-3	4.867011356E-3
16.06	2.437971535E-1	3.198408578E-3	5.072452941E-3
16.07	2.330383604E-1	2.065419492E-3	5.438393356E-3
16.080000000000002	2.181172848E-1	1.263776920E-3	5.132997816E-3
16.09	2.011312037E-1	-1.243656171E-4	5.630845743E-3
16.1	1.833535433E-1	-1.422073509E-3	6.089845364E-3
16.11	1.642779273E-1	-1.246256587E-3	5.567352902E-3
16.12	1.442658537E-1	-8.257736150E-4	4.235990524E-3
16.13	1.262769931E-1	-1.496755050E-3	3.315823764E-3
16.14	1.108778586E-1	-7.449732098E-4	2.603706184E-3
16.15	9.872838876E-2	1.428676373E-4	8.812307731E-4
16.16	9.177859932E-2	4.244254731E-4	-1.799365407E-3
16.17	8.935458557E-2	1.044859018E-3	-3.328566916E-3
16.18	8.954136956E-2	2.828643373E-3	-4.581921125E-3
16.19	9.274172575E-2	2.599616853E-3	-6.935914374E-3
16.2	9.768743184E-2	3.125594244E-3	-7.377733940E-3
16.21	1.017281200E-1	2.878041681E-3	-8.250983903E-3
16.22	1.046557924E-1	2.145334191E-3	-9.515382528E-3
16.23	1.018857592E-1	2.044112035E-3	-9.016043014E-3
16.240000000000002	9.396529861E-2	1.910974700E-3	-8.788835434E-3
16.25	7.915738353E-2	5.486059339E-4	-8.533538886E-3
16.26	5.920534875E-2	3.104895031E-4	-8.556701641E-3
16.27	3.200328241E-2	1.019851635E-3	-7.839936532E-3
16.28	5.881652067E-4	6.407521348E-4	-6.227842814E-3
16.29	-3.489526080E-2	-3.654079947E-4	-5.399083330E-3
16.3	-7.509137185E-2	-4.721349715E-4	-5.560644946E-3
16.31	-1.132690681E-1	-1.087710501E-3	-3.886216469E-3
16.32	-1.513099260E-1	-1.007903616E-3	-2.413213029E-3
16.330000000000002	-1.837262573E-1	-1.626752645E-3	-8.113718424E-4
16.34	-2.147345367E-1	-2.646588780E-3	1.056005683E-3
16.35	-2.367451820E-1	-3.907611533E-3	3.491006141E-3
16.36	-2.536271715E-1	-3.777788372E-3	4.802928705E-3
16.37	-2.643616464E-1	-4.534201129E-3	5.411089641E-3
16.38	-2.668057539E-1	-5.339909031E-3	6.883274534E-3
16.39	-2.651116760E-1	-5.197942851E-3	7.731880990E-3
16.4	-2.585371920E-1	-4.701963433E-3	8.085836873E-3
16.41	-2.486189407E-1	-4.400428352E-3	8.218927834E-3
16.42	-2.367949107E-1	-3.952238277E-3	8.072796226E-3
16.43	-2.227643795E-1	-2.986285929E-3	8.551906313E-3
16.44	-2.076776902E-1	-2.868509214E-3	9.712794008E-3
16.45	-1.944894585E-1	-1.004881724E-3	7.751736885E-3
16.46	-1.806917980E-1	-1.135512892E-3	8.425042718E-3
16.47	-1.681135007E-1	-4.746383360E-4	9.316110346E-3
16.48	-1.558899970E-1	4.311055938E-5	8.209145526E-3
16.490000000000002	-1.465792851E-1	-1.336071657E-4	7.091109636E-3
16.5	-1.358113102E-1	-3.130276728E-4	5.488954382E-3
16.51	-1.261612663E-1	-6.064860283E-4	4.405767806E-3
16.52	-1.177738514E-1	-6.885743052E-4	2.885763884E-3
16.53	-1.094660924E-1	-1.569700036E-4	3.742310821E-4
16.54	-1.024915049E-1	-4.351218381E-5	-1.824129397E-3
16.55	-9.850249436E-2	-7.822819760E-4	-3.560197806E-3
16.56	-9.543786319E-2	-7.390290729E-4	-5.563821780E-3
16.57	-9.200246103E-2	-9.443414475E-4	-6.274003617E-3
16.580000000000002	-8.944888581E-2	-1.642388562E-3	-7.209886102E-3
16.59	-8.630933841E-2	-1.485142478E-3	-7.689266592E-3
16.6	-8.296805977E-2	-7.673633214E-4	-6.392430216E-3
16.61	-7.621511408E-2	-1.687229564E-3	-5.435615279E-3
16.62	-6.583366725E-2	-1.803588434E-3	-7.455267662E-3
16.63	-4.941614389E-2	-5.400189503E-4	-7.601250966E-3
16.64	-2.817303629E-2	-1.302694151E-3	-6.998526354E-3
16.65	-2.427891196E-4	-7.599004421E-4	-6.763412569E-3
16.66	3.138777946E-2	6.627845495E-4	-6.413559369E-3
16.67	6.765637203E-2	5.678023544E-4	-5.452673408E-3
16.68	1.071855967E-1	3.031585734E-4	-4.840520003E-3
16.69	1.468493942E-1	1.369322819E-3	-4.812432056E-3
16.7	1.832769821E-1	2.152992135E-3	-3.925722769E-3
16.71	2.158615388E-1	2.596225151E-3	-2.275985090E-3
16.72	2.430937419E-1	2.933175221E-3	-4.660902165E-4
16.73	2.615150951E-1	3.824114442E-3	6.598066010E-4
16.740000000000002	2.736340190E-1	3.916108650E-3	1.931400875E-3
16.75	2.771519182E-1	3.184911925E-3	2.745871626E-3
16.76	2.730368268E-1	3.267248561E-3	3.596723454E-3
16.77	2.630262223E-1	4.113921956E-3	4.095254188E-3
16.78	2.479827150E-1	2.993884779E-3	4.088830280E-3
16.79	2.319103459E-1	1.997548281E-3	4.918320081E-3
16.8	2.135416350E-1	1.693040159E-3	4.903526053E-3
16.81	1.954433882E-1	1.282138373E-3	5.945526765E-3
16.82	1.792073826E-1	8.930194061E-4	5.785169828E-3
16.830000000000002	1.651333082E-1	-4.087505543E-5	5.425638906E-3
16.84	1.535150909E-1	-5.578602783E-4	5.321586963E-3
16.85	1.443020162E-1	-8.498788104E-4	5.344634042E-3
16.86	1.372555448E-1	-1.105878345E-3	5.019300529E-3
16.87	1.313370039E-1	-7.238699262E-4	3.111295490E-3
16.88	1.277146064E-1	-6.969730263E-4	9.931293615E-4
16.89	1.233856156E-1	-2.716977838E-4	1.966737130E-4
16.9	1.201762623E-1	-6.260151891E-5	-1.597225497E-3
16.91	1.174483854E-1	8.570351297E-4	-4.083433115E-3
16.92	1.131951537E-1	1.647893772E-3	-4.869570488E-3
16.93	1.084464907E-1	1.580159186E-3	-6.402475479E-3
16.94	1.030151997E-1	2.016240484E-3	-7.398617206E-3
16.95	9.617674878E-2	2.246720199E-3	-7.375703994E-3
16.96	8.714630828E-2	2.578138474E-3	-7.522895102E-3
16.97	7.624157724E-2	2.175854402E-3	-8.001423178E-3
16.98	6.383200733E-2	1.813974422E-3	-7.481768174E-3
16.990000000000002	4.805928639E-2	2.129485227E-3	-7.376710654E-3
17.0	2.897737221E-2	1.789882351E-3	-7.811918153E-3
17.01	6.887166187E-3	7.866243792E-4	-7.307219568E-3
17.02	-1.743533251E-2	5.611942853E-4	-6.039137939E-3
17.03	-4.563259421E-2	-1.794716660E-4	-5.475804342E-3
17.04	-7.532582088E-2	-1.591883473E-3	-4.085713670E-3
17.05	-1.070091299E-1	-2.213693841E-3	-3.176163477E-3
17.06	-1.401264199E-1	-3.445779517E-3	-1.531776209E-3
17.07	-1.733093891E-1	-1.642697617E-3	-5.790851062E-4
17.080000000000002	-2.043430265E-1	-3.235260887E-3	9.408114717E-4
17.09	-2.311523162E-1	-3.394859847E-3	2.927450647E-3
17.1	-2.521841534E-1	-3.324571541E-3	5.755561803E-3
17.11	-2.665001225E-1	-3.056019197E-3	6.696119254E-3
17.12	-2.752519772E-1	-2.447613997E-3	7.474303161E-3
17.13	-2.769606019E-1	-3.154659045E-3	8.398314289E-3
17.14	-2.701186797E-1	-3.427012189E-3	8.999316389E-3
17.150000000000002	-2.575808325E-1	-3.712394569E-3	9.330860203E-3
17.16	-2.397776320E-1	-4.138985248E-3	8.886480486E-3
17.17	-2.184697228E-1	-3.632426407E-3	8.333034328E-3
17.18	-1.958035045E-1	-3.472539486E-3	8.949268466E-3
17.19	-1.741326261E-1	-2.402597550E-3	9.057926735E-3
17.2	-1.550371961E-1	-1.545228606E-3	8.392806147E-3
17.21	-1.367680290E-1	-1.409082162E-3	8.167965918E-3
17.22	-1.262863073E-1	-6.380903861E-4	6.278786903E-3
17.23	-1.196644629E-1	-1.351720669E-3	6.326404119E-3
17.240000000000002	-1.176166358E-1	-5.418017186E-5	4.695353391E-3
17.25	-1.179798719E-1	-4.757979097E-4	3.791407295E-3
17.26	-1.198204656E-1	-1.547934658E-3	1.979405949E-3
17.27	-1.226356594E-1	-1.249169070E-3	-6.881692057E-4
17.28	-1.255088841E-1	-1.368538688E-3	-2.595344630E-3
17.29	-1.258231293E-1	-1.875257880E-3	-3.639436041E-3
17.3	-1.228915287E-1	-1.921534338E-3	-4.566328737E-3
17.31	-1.163476053E-1	-1.892416173E-3	-4.904056413E-3
17.32	-1.068037107E-1	-1.938379222E-3	-5.268447757E-3
17.330000000000002	-9.365480706E-2	-1.468396034E-3	-6.422039553E-3
17.34	-7.696088763E-2	-1.526323084E-3	-6.528628051E-3
17.35	-5.790927424E-2	-1.525305270E-3	-6.625094690E-3
17.36	-3.602737834E-2	-1.543775836E-3	-7.429237857E-3
17.37	-1.028539743E-2	1.555688478E-4	-7.025817477E-3
17.38	1.161572982E-2	-5.460024625E-4	-6.478702248E-3
17.39	3.580976691E-2	1.644466677E-4	-7.969584221E-3
17.400000000000002	6.326800034E-2	-3.750103971E-4	-6.614862372E-3
17.41	9.066974673E-2	2.476656047E-4	-6.004868528E-3
17.42	1.188017342E-1	5.652318325E-4	-4.795470079E-3
17.43	1.466837294E-1	1.837864861E-3	-4.350334065E-3
17.44	1.738659711E-1	2.012580264E-3	-3.061829595E-3
17.45	1.996733922E-1	2.227297125E-3	-1.664758895E-3
17.46	2.228954758E-1	3.753803292E-3	-4.587405558E-4
17.47	2.412344303E-1	4.678430527E-3	1.073888803E-3
17.48	2.544482912E-1	4.221682697E-3	2.207571973E-3
17.490000000000002	2.637123551E-1	4.158139361E-3	3.040195594E-3
17.5	2.679398415E-1	3.208652294E-3	3.096617048E-3
17.51	2.645089365E-1	3.487386395E-3	4.869164718E-3
17.52	2.549325046E-1	2.915546259E-3	4.735175005E-3
17.53	2.410354972E-1	1.420715478E-3	5.595197019E-3
17.54	2.223774758E-1	3.176753082E-4	5.997262245E-3
17.55	2.007250322E-1	7.555292381E-4	5.982728154E-3
17.56	1.804023128E-1	-6.785155272E-4	6.419569024E-3
17.57	1.606908475E-1	-2.079890180E-4	5.401816206E-3
17.580000000000002	1.427281186E-1	2.495875990E-4	5.040011213E-3
17.59	1.276498584E-1	6.208018427E-4	5.062379376E-3
17.6	1.165377934E-1	5.943716993E-4	4.350846778E-3
17.61	1.101597482E-1	1.408784862E-4	2.990198488E-3
17.62	1.080507715E-1	7.189826119E-4	1.136476187E-3
17.63	1.085213401E-1	1.102899555E-3	-1.039728626E-3
17.64	1.118252793E-1	1.321615196E-3	-3.338836303E-3
17.650000000000002	1.167630428E-1	1.066911721E-3	-4.196958351E-3
17.66	1.205745225E-1	2.312249860E-3	-5.143696221E-3
17.67	1.233553103E-1	3.421923354E-3	-6.482449091E-3
17.68	1.223091850E-1	2.001791226E-3	-7.721314768E-3
17.69	1.174817410E-1	2.276131944E-3	-7.780852074E-3
17.7	1.053056654E-1	1.793121204E-3	-6.884235147E-3
17.71	8.972758604E-2	1.595662741E-3	-6.567670952E-3
17.72	6.697890232E-2	2.071888647E-3	-6.835008087E-3
17.73	4.097849643E-2	2.165361988E-3	-7.107260731E-3
17.740000000000002	1.239145578E-2	1.222923139E-3	-7.079895460E-3
17.75	-1.874389787E-2	2.576165448E-4	-6.991470020E-3
17.76	-5.154139225E-2	-2.780367387E-5	-6.554208632E-3
17.77	-8.231672672E-2	-4.940096906E-4	-4.459776632E-3
17.78	-1.122665007E-1	-1.066300199E-3	-3.280027622E-3
17.79	-1.388520393E-1	-2.007573410E-3	-2.286734337E-3
17.8	-1.645523980E-1	-2.311572298E-3	-1.648920595E-3
17.81	-1.865031187E-1	-2.380915263E-3	7.531723919E-4
17.82	-2.042456110E-1	-2.992906843E-3	2.523375633E-3
17.830000000000002	-2.198588777E-1	-2.753755761E-3	4.869908254E-3
17.84	-2.317825519E-1	-3.455872118E-3	6.514961339E-3
17.85	-2.397275068E-1	-4.289413318E-3	6.252122003E-3
17.86	-2.454560328E-1	-3.833753434E-3	6.378859587E-3
17.87	-2.482748659E-1	-2.981423020E-3	7.358713328E-3
17.88	-2.464965640E-1	-3.167577199E-3	8.725972358E-3
17.89	-2.419168776E-1	-4.073928513E-3	9.834802891E-3
17.900000000000002	-2.330443632E-1	-2.977456395E-3	8.946051624E-3
17.91	-2.190782740E-1	-3.733967228E-3	9.137559973E-3
17.92	-2.043459069E-1	-1.946790891E-3	9.668950558E-3
17.93	-1.879560995E-1	-1.896497212E-3	8.581291674E-3
17.94	-1.699527058E-1	-7.338579140E-4	7.974896675E-3
17.95	-1.510007928E-1	-2.250442693E-4	7.724846065E-3
17.96	-1.325486333E-1	-8.974148900E-4	7.031425894E-3
17.97	-1.182542378E-1	-9.456503348E-4	5.284936413E-3
17.98	-1.095845874E-1	-9.857495624E-4	3.435198298E-3
17.990000000000002	-1.041781422E-1	-7.610586179E-4	1.943551885E-3
18.0	-1.029249461E-1	-6.444161282E-4	-8.667231871E-5
18.01	-1.049920596E-1	-8.252579221E-4	-1.663316821E-3
18.02	-1.080817113E-1	-1.720923524E-3	-2.786588201E-3
18.03	-1.120823167E-1	-2.637996407E-3	-3.908526517E-3
18.04	-1.161128308E-1	-2.385162572E-3	-4.630359519E-3
18.05	-1.168763693E-1	-2.267877076E-3	-4.942416046E-3
18.06	-1.131324794E-1	-1.905427385E-3	-5.577018371E-3
18.07	-1.043644177E-1	-2.033356599E-3	-5.348047561E-3
18.080000000000002	-9.049903494E-2	-9.923400664E-4	-7.018374673E-3
18.09	-7.011833522E-2	-2.090487025E-4	-6.847204918E-3
18.1	-4.367450459E-2	-1.141203515E-3	-5.829577629E-3
18.11	-1.273276155E-2	-7.878889018E-4	-6.325549987E-3
18.12	1.905976067E-2	-5.483895581E-4	-5.635462748E-3
18.13	5.262069565E-2	-3.864773444E-5	-5.451711661E-3
18.14	8.699081098E-2	7.574008504E-4	-5.284456579E-3
18.150000000000002	1.211678828E-1	1.004997870E-3	-5.405520498E-3
18.16	1.526841619E-1	6.346944662E-4	-4.354022576E-3
18.17	1.789355293E-1	1.200002037E-3	-2.424422915E-3
18.18	2.011048273E-1	2.161867052E-3	-1.258980731E-3
18.19	2.176881876E-1	1.994845927E-3	-2.015328382E-4
18.2	2.289774587E-1	3.155019192E-3	-9.186303634E-5
18.21	2.380612608E-1	4.324139768E-3	1.340334890E-3
18.22	2.410371447E-1	4.040206146E-3	2.411307086E-3
18.23	2.412552080E-1	3.814612021E-3	3.435337159E-3
18.240000000000002	2.373718825E-1	3.152409629E-3	3.429684883E-3
18.25	2.307064759E-1	3.663643531E-3	4.248171031E-3
18.26	2.223435106E-1	1.722864936E-3	5.189801471E-3
18.27	2.124797870E-1	2.435657712E-3	4.749517023E-3
18.28	2.027337870E-1	1.306528294E-3	4.671798430E-3
18.29	1.908312209E-1	5.855074941E-4	5.910137766E-3
18.3	1.787749006E-1	-2.149721752E-4	7.170961049E-3
18.31	1.670291758E-1	-6.465139274E-4	6.908948550E-3
18.32	1.553205907E-1	-2.911003289E-4	5.189213574E-3
18.330000000000002	1.442609904E-1	-2.960104824E-4	4.660332984E-3
18.34	1.343049935E-1	-5.215328683E-4	4.178549009E-3
18.35	1.252046514E-1	-3.590656651E-5	2.527917806E-3
18.36	1.173823057E-1	8.290730116E-4	1.062927616E-3
18.37	1.114961967E-1	5.966861201E-4	2.287468243E-4
18.38	1.069384270E-1	1.991746770E-3	-2.717215157E-3
18.39	1.051403848E-1	2.990727521E-3	-4.828363823E-3
18.400000000000002	1.035442874E-1	2.921188869E-3	-4.696883372E-3
18.41	1.028206077E-1	2.421699897E-3	-6.460299248E-3
18.42	1.021424538E-1	3.475614737E-3	-7.240001053E-3
18.43	9.902810592E-2	1.812129804E-3	-7.171966249E-3
18.44	9.203983009E-2	1.354530567E-3	-7.745523841E-3
18.45	8.227134950E-2	1.604605406E-3	-7.989132415E-3
18.46	6.635439926E-2	1.491821631E-3	-7.575708760E-3
18.47	4.447475981E-2	9.413392757E-4	-7.286395026E-3
18.48	1.766204297E-2	5.370267070E-4	-7.276785982E-3
18.490000000000002	-1.288308628E-2	-2.491482787E-4	-6.593424315E-3
18.5	-4.742005462E-2	-1.365852673E-3	-5.524878072E-3
18.51	-8.476128062E-2	-1.608537249E-3	-4.587041012E-3
18.52	-1.194994870E-1	-2.147890046E-3	-3.408573511E-3
18.53	-1.558747635E-1	-2.830815312E-3	-1.160926179E-3
18.54	-1.869135502E-1	-1.660927800E-3	1.032812166E-3
18.55	-2.122769540E-1	-2.370240331E-3	1.994139714E-3
18.56	-2.289209518E-1	-3.742891117E-3	3.857789283E-3
18.57	-2.416517719E-1	-3.846910745E-3	4.472155763E-3
18.580000000000002	-2.479362196E-1	-2.738303151E-3	5.417528578E-3
18.59	-2.463987878E-1	-2.969533039E-3	5.767654501E-3
18.6	-2.406905600E-1	-3.526388921E-3	6.441123635E-3
18.61	-2.328544048E-1	-3.916604455E-3	6.996135562E-3
18.62	-2.228251239E-1	-3.355877193E-3	7.520352214E-3
18.63	-2.111046867E-1	-2.886600707E-3	8.096610859E-3
18.64	-1.990271877E-1	-3.310141490E-3	7.990896349E-3
18.650000000000002	-1.871596379E-1	-2.948409674E-3	7.737241035E-3
18.66	-1.760072364E-1	-1.616391201E-3	8.139374638E-3
18.67	-1.672185451E-1	-2.894825599E-4	7.889885948E-3
18.68	-1.583241162E-1	-3.679991212E-4	8.105485800E-3
18.69	-1.515299895E-1	-9.743077716E-4	6.686648962E-3
18.7	-1.440223175E-1	-5.996653520E-4	7.106724886E-3
18.71	-1.367872748E-1	-8.229221544E-4	4.824147468E-3
18.72	-1.325337144E-1	-1.349476826E-3	3.494398560E-3
18.73	-1.282681290E-1	-1.538969652E-3	1.863100100E-3
18.740000000000002	-1.222453465E-1	-1.590968988E-3	5.172456935E-4
18.75	-1.174435069E-1	-1.951341134E-3	-1.076120102E-3
18.76	-1.135198649E-1	-2.046641715E-3	-3.037716996E-3
18.77	-1.090585062E-1	-1.765586842E-3	-3.873795005E-3
18.78	-1.042145512E-1	-1.665761548E-3	-4.452085832E-3
18.79	-9.830507666E-2	-2.035025866E-3	-5.123187102E-3
18.8	-9.011449144E-2	-2.457830576E-3	-5.659230208E-3
18.81	-7.986086325E-2	-2.434191969E-3	-6.227980702E-3
18.82	-6.609410896E-2	-2.321009949E-3	-5.652561196E-3
18.830000000000002	-4.913700693E-2	-7.934888757E-4	-6.559537068E-3
18.84	-2.986119461E-2	-4.800707971E-4	-7.079818479E-3
18.85	-5.556772504E-3	-1.502577000E-3	-6.156694153E-3
18.86	1.977436211E-2	8.491878071E-4	-5.843558068E-3
18.87	4.989197541E-2	1.879713420E-4	-5.624181617E-3
18.88	8.218386245E-2	9.053754323E-4	-5.204896749E-3
18.89	1.154678927E-1	5.615081990E-4	-3.857298483E-3
18.900000000000002	1.485833850E-1	3.304017301E-4	-3.379677785E-3
18.91	1.790374938E-1	1.253382730E-3	-2.909010997E-3
18.92	2.044292402E-1	3.044213055E-3	-1.760055252E-3
18.93	2.261686000E-1	4.156610236E-3	-7.951471550E-4
18.94	2.418385545E-1	4.008025546E-3	1.283779119E-3
18.95	2.524707159E-1	2.005863673E-3	1.184710186E-3
18.96	2.544156876E-1	4.006660418E-3	2.256570106E-3
18.97	2.501105452E-1	3.449464836E-3	3.023343797E-3
18.98	2.398380504E-1	2.504955155E-3	3.364059900E-3
18.990000000000002	2.267193813E-1	2.643926680E-3	4.639420890E-3
19.0	2.112279148E-1	2.207452711E-3	6.059684036E-3
19.01	1.943602385E-1	1.529540982E-3	6.451705310E-3
19.02	1.778384863E-1	6.931800548E-4	6.155563665E-3
19.03	1.629145978E-1	4.921412351E-4	5.784179921E-3
19.04	1.519660360E-1	5.729314520E-4	5.525598731E-3
19.05	1.441881057E-1	7.364941047E-5	5.336161777E-3
19.06	1.376886326E-1	4.194611365E-4	5.044122432E-3
19.07	1.352221831E-1	-6.874520358E-4	4.702477677E-3
19.080000000000002	1.335446155E-1	-1.306416974E-3	2.906424160E-3
19.09	1.337996459E-1	-4.298275360E-4	7.854690292E-4
19.1	1.350834841E-1	2.533333313E-4	-5.456717562E-4
19.11	1.337306943E-1	1.014867113E-3	-2.258028740E-3
19.12	1.315196656E-1	1.640604034E-3	-4.510090206E-3
19.13	1.276661281E-1	9.582778801E-4	-5.068123267E-3
19.14	1.186945910E-1	6.443889299E-4	-6.163626943E-3
19.150000000000002	1.109951334E-1	2.186866486E-3	-6.624660959E-3
19.16	9.976438988E-2	2.779754499E-3	-6.776955239E-3
19.17	8.708919963E-2	2.231545565E-3	-6.878894037E-3
19.18	7.177293803E-2	1.883643220E-3	-6.523682368E-3
19.19	5.431263485E-2	1.979356123E-3	-6.495003718E-3
19.2	3.548956445E-2	1.637620266E-3	-7.037682921E-3
19.21	1.435336015E-2	9.906927972E-4	-6.686446439E-3
19.22	-9.895427827E-3	5.822812870E-4	-5.683770667E-3
19.23	-3.366044530E-2	-5.297841500E-4	-6.186132313E-3
19.240000000000002	-6.034994861E-2	-5.975206017E-4	-5.261271640E-3
19.25	-8.879230643E-2	-1.510921746E-3	-4.216814986E-3
19.26	-1.164250645E-1	-2.085145875E-3	-2.002253289E-3
19.27	-1.468394172E-1	-2.754425474E-3	-9.871152636E-4
19.28	-1.747150039E-1	-2.599953390E-3	6.014258353E-4
19.29	-1.980893974E-1	-2.452791922E-3	2.080484161E-3
19.3	-2.191441950E-1	-2.899440651E-3	3.285076934E-3
19.31	-2.352546169E-1	-3.194052345E-3	4.726580188E-3
19.32	-2.455952735E-1	-2.826600123E-3	6.090193641E-3
19.330000000000002	-2.491380209E-1	-3.028295922E-3	7.191714962E-3
19.34	-2.467719144E-1	-4.117448842E-3	7.000360054E-3
19.35	-2.398669635E-1	-4.493845834E-3	6.866273577E-3
19.36	-2.287606129E-1	-3.531617529E-3	7.868263451E-3
19.37	-2.133473719E-1	-2.383590467E-3	8.270818825E-3
19.38	-1.969947371E-1	-3.130933209E-3	9.205422645E-3
19.39	-1.792701016E-1	-2.486650391E-3	8.911930359E-3
19.400000000000002	-1.641693155E-1	-1.140020921E-3	9.125080107E-3
19.41	-1.496638587E-1	7.896822043E-5	9.366348245E-3
19.42	-1.377541901E-1	3.929295547E-4	8.208559160E-3
19.43	-1.297041091E-1	3.865189168E-4	6.846232536E-3
19.44	-1.254652833E-1	4.888619598E-4	6.458591735E-3
19.45	-1.239330206E-1	1.269601376E-4	5.010053981E-3
19.46	-1.249701926E-1	-6.113793311E-4	2.800639201E-3
19.47	-1.275792602E-1	-1.447062191E-3	1.023709908E-3
19.48	-1.305482261E-1	-1.969288004E-3	-1.016169661E-3
19.490000000000002	-1.313759240E-1	-2.739968463E-3	-2.705708777E-3
19.5	-1.305087952E-1	-1.568976335E-3	-3.481462159E-3
19.51	-1.278152343E-1	-2.559375794E-3	-2.928009776E-3
19.52	-1.201488922E-1	-1.945804987E-3	-4.064462653E-3
19.53	-1.105573568E-1	-7.434356353E-4	-5.098452324E-3
19.54	-9.376487547E-2	-1.618337370E-3	-5.809659213E-3
19.55	-7.579121653E-2	-5.414231784E-4	-6.630865429E-3
19.56	-5.154420672E-2	-8.616008830E-4	-5.980305426E-3
19.57	-2.730769405E-2	-1.951621164E-3	-6.085355988E-3
19.580000000000002	-1.125858639E-3	-2.026776571E-3	-6.172599514E-3
19.59	2.675623656E-2	-1.572121928E-3	-6.626489604E-3
19.6	5.389309701E-2	-1.053970503E-3	-6.812253470E-3
19.61	7.995686413E-2	-6.748809831E-5	-5.295334794E-3
19.62	1.051119355E-1	6.200184988E-4	-4.765344969E-3
19.63	1.301192128E-1	1.682133160E-3	-4.115906556E-3
19.64	1.514312211E-1	2.335667053E-3	-2.343689800E-3
19.650000000000002	1.745081990E-1	2.978195708E-3	-1.740659629E-3
19.66	1.923681791E-1	2.534243098E-3	-9.493388706E-4
19.67	2.087505196E-1	3.266385038E-3	1.055789187E-4
19.68	2.221648541E-1	3.500048504E-3	1.737485176E-3
19.69	2.298131988E-1	2.989621355E-3	2.146286606E-3
19.7	2.353774851E-1	3.678454441E-3	2.465054128E-3
19.71	2.362328002E-1	3.422645858E-3	3.203333812E-3
19.72	2.336681907E-1	3.015665383E-3	3.987239329E-3
19.73	2.266649755E-1	2.002360592E-3	4.346333019E-3
19.740000000000002	2.157084377E-1	9.200942944E-4	5.001779590E-3
19.75	2.018112654E-1	3.931476254E-4	6.011758315E-3
19.76	1.858945180E-1	2.386313759E-4	6.072083382E-3
19.77	1.697386534E-1	2.571439389E-4	5.371566110E-3
19.78	1.537409964E-1	3.466763362E-4	5.578014914E-3
19.79	1.402975311E-1	-3.064038070E-4	5.884386851E-3
19.8	1.288848268E-1	-1.553589743E-4	4.710245197E-3
19.81	1.226985307E-1	-6.726399435E-4	2.647602474E-3
19.82	1.182645814E-1	4.522671650E-4	2.034043954E-3
19.830000000000002	1.171350565E-1	-1.057554348E-3	-2.401492542E-4
19.84	1.201008543E-1	1.139781571E-3	2.106289543E-5
19.85	1.230996338E-1	1.953272094E-3	-3.364964542E-3
19.86	1.268192790E-1	2.023005834E-3	-4.555833467E-3
19.87	1.281379921E-1	2.512096077E-3	-5.941669791E-3
19.88	1.280056628E-1	2.699268998E-3	-6.070977794E-3
19.89	1.237284650E-1	2.333908517E-3	-6.494804118E-3
19.900000000000002	1.133575870E-1	2.531982273E-3	-7.404322100E-3
19.91	9.896692162E-2	2.589586517E-3	-7.109178945E-3
19.92	7.994801882E-2	1.721237335E-3	-6.256261222E-3
19.93	5.638488024E-2	1.030203667E-3	-6.315589610E-3
19.94	2.969745690E-2	1.036789914E-3	-6.419468950E-3
19.95	-5.505356835E-4	1.138857123E-3	-8.017895255E-3
19.96	-3.325175494E-2	1.000942194E-3	-6.353678154E-3
19.97	-6.251550908E-2	-6.509250433E-4	-5.313715661E-3
19.98	-9.100534651E-2	-7.597158990E-4	-3.901400322E-3
19.990000000000002	-1.199515474E-1	-1.344252268E-3	-2.827383899E-3
20.0	-1.444947541E-1	-1.430981573E-3	-2.469791607E-3
20.01	-1.664359108E-1	-1.544644722E-3	-1.053478515E-3
20.02	-1.855865577E-1	-2.411160373E-3	1.626315569E-3
20.03	-2.000792098E-1	-2.991728327E-3	2.806264518E-3
20.04	-2.106263685E-1	-3.067604069E-3	4.316132925E-3
20.05	-2.186435319E-1	-2.835795119E-3	5.053344566E-3
20.06	-2.231992269E-1	-2.850961812E-3	5.501210930E-3
20.07	-2.242540351E-1	-3.326899095E-3	6.526304657E-3
20.080000000000002	-2.226477035E-1	-3.611854511E-3	7.243862896E-3
20.09	-2.192687456E-1	-2.728666234E-3	7.532502643E-3
20.1	-2.125204814E-1	-2.899123630E-3	8.173440782E-3
20.11	-2.041801310E-1	-2.646665442E-3	8.241827384E-3
20.12	-1.945800037E-1	-3.167759280E-3	9.268619101E-3
20.13	-1.839166555E-1	-1.961604818E-3	7.867608314E-3
20.14	-1.715809258E-1	-1.536652027E-3	7.770767905E-3
20.150000000000002	-1.594986731E-1	-7.825374580E-5	8.153747167E-3
20.16	-1.482226695E-1	-4.845515099E-4	7.270745444E-3
20.17	-1.383457965E-1	-8.910622628E-4	6.004481877E-3
20.18	-1.298860966E-1	-9.143708847E-4	4.842493355E-3
20.19	-1.230355448E-1	-1.163595290E-3	3.574510018E-3
20.2	-1.188506118E-1	-1.144243749E-3	2.183740125E-3
20.21	-1.168682191E-1	-9.137716488E-4	7.364943511E-4
20.22	-1.165996907E-1	-9.701366216E-4	-8.000619082E-4
20.23	-1.169195037E-1	-1.390130766E-3	-2.151722545E-3
20.240000000000002	-1.170759336E-1	-1.928382674E-3	-2.970873954E-3
20.25	-1.162057883E-1	-1.855674296E-3	-4.492023606E-3
20.26	-1.133600925E-1	-2.601675796E-3	-5.290973462E-3
20.27	-1.072148754E-1	-2.295721261E-3	-5.084819916E-3
20.28	-9.688167903E-2	-1.510536238E-3	-4.838003868E-3
20.29	-7.990614643E-2	-1.208152109E-3	-5.327425342E-3
20.3	-5.737646273E-2	-1.337340961E-3	-5.967763981E-3
20.31	-3.220073733E-2	-8.862840427E-4	-6.031485750E-3
20.32	-2.518516165E-3	-1.335585060E-4	-7.120448361E-3
20.330000000000002	3.116335669E-2	5.707030981E-4	-7.005029741E-3
20.34	6.382671652E-2	8.687991796E-4	-6.029638145E-3
20.35	9.680658406E-2	8.719829882E-4	-5.116863462E-3
20.36	1.283353617E-1	3.710590216E-4	-4.478799886E-3
20.37	1.555294823E-1	3.187575311E-5	-3.513331423E-3
20.38	1.802082851E-1	1.085451034E-3	-2.252718490E-3
20.39	1.987101977E-1	2.391499490E-3	-1.903665820E-3
20.400000000000002	2.099536019E-1	2.606558406E-3	-1.189228705E-3
20.41	2.183946905E-1	2.616673022E-3	1.370625776E-3
20.42	2.214796759E-1	3.941834147E-3	8.601714815E-5
20.43	2.215232220E-1	2.103749351E-3	2.219186073E-3
20.44	2.175857480E-1	2.102137100E-3	3.384322344E-3
20.45	2.118787680E-1	3.408816736E-3	3.435784803E-3
20.46	2.056797788E-1	2.738280519E-3	3.810240666E-3
20.47	1.982367029E-1	2.802585049E-3	4.770949005E-3
20.48	1.907753919E-1	2.478929585E-3	5.809069997E-3
20.490000000000002	1.827211661E-1	1.916305618E-3	5.553747304E-3
20.5	1.755370331E-1	1.118328662E-3	5.200761658E-3
20.51	1.681844384E-1	4.479482626E-4	5.378328945E-3
20.52	1.598156246E-1	-1.108566697E-5	5.384718266E-3
20.53	1.521877527E-1	-4.922566198E-4	4.825395445E-3
20.54	1.451256975E-1	-4.763851621E-5	3.593275022E-3
20.55	1.391650292E-1	6.534854296E-4	2.455903496E-3
20.56	1.331480889E-1	5.981812781E-5	1.032722335E-3
20.57	1.273539233E-1	-7.106808776E-4	1.114845106E-4
20.580000000000002	1.243617144E-1	2.098003463E-3	-2.908243889E-3
20.59	1.203121632E-1	1.575481299E-3	-3.086427031E-3
20.6	1.176275466E-1	2.499673445E-3	-3.899456224E-3
20.61	1.147424644E-1	3.276505379E-3	-4.863709486E-3
20.62	1.103701113E-1	3.251553430E-3	-5.786397729E-3
20.63	1.039949712E-1	2.420553819E-3	-6.158599998E-3
20.64	9.526959674E-2	2.327131450E-3	-6.187440546E-3
20.650000000000002	8.347695481E-2	1.714814829E-3	-6.054761789E-3
20.66	6.889929761E-2	1.171304056E-3	-6.005744226E-3
20.67	4.995465580E-2	1.500164865E-3	-6.322792835E-3
20.68	2.649604898E-2	1.099350966E-3	-6.837817723E-3
20.69	-1.525106995E-3	-2.402531312E-4	-6.725540120E-3
20.7	-2.876185063E-2	-3.737706086E-4	-6.075300927E-3
20.71	-6.160496615E-2	-1.190615022E-3	-5.124642876E-3
20.72	-9.332014210E-2	-8.559165658E-4	-4.221539835E-3
20.73	-1.243205742E-1	-7.351288013E-4	-2.637436828E-3
20.740000000000002	-1.536498551E-1	-9.647895870E-4	-4.652289967E-4
20.75	-1.783675861E-1	-2.075391688E-3	4.739375466E-4
20.76	-1.993339055E-1	-2.824882665E-3	1.309356351E-3
20.77	-2.152669503E-1	-2.887758241E-3	2.952562274E-3
20.78	-2.243385644E-1	-3.353861349E-3	4.125492804E-3
20.79	-2.282121039E-1	-3.491655184E-3	5.212212055E-3
20.8	-2.279807966E-1	-3.706930390E-3	5.920982054E-3
20.81	-2.218531781E-1	-3.297307449E-3	6.815790867E-3
20.82	-2.134033820E-1	-2.946928202E-3	6.032476069E-3
20.830000000000002	-2.024439487E-1	-3.401957019E-3	6.636986976E-3
20.84	-1.905299486E-1	-2.612529016E-3	7.551349948E-3
20.85	-1.782460021E-1	-2.851035405E-3	8.251211571E-3
20.86	-1.686305978E-1	-1.578136032E-3	8.468226045E-3
20.87	-1.595820196E-1	-1.882082783E-3	8.170439141E-3
20.88	-1.537166493E-1	-7.248573721E-4	8.296772914E-3
20.89	-1.496924544E-1	-1.046695786E-3	7.322995030E-3
20.900000000000002	-1.472567668E-1	-1.498562481E-3	6.116100953E-3
20.91	-1.454708931E-1	-1.066058190E-3	5.442891420E-3
20.92	-1.435660691E-1	-1.080004817E-3	4.255982021E-3
20.93	-1.414553958E-1	-1.272198679E-3	2.652374042E-3
20.94	-1.387330399E-1	-9.260396108E-4	1.077242202E-3
20.95	-1.352408829E-1	-9.516162829E-4	-1.135269795E-3
20.96	-1.307449290E-1	-1.240425680E-3	-1.405536270E-3
20.97	-1.248128411E-1	-2.211268314E-3	-1.494472986E-3
20.98	-1.167765412E-1	-1.954902276E-3	-2.634348626E-3
20.990000000000002	-1.076332026E-1	-2.399205834E-3	-4.424450824E-3
21.0	-9.640442663E-2	-2.789101573E-3	-4.866975057E-3
21.01	-8.431581389E-2	-2.203306449E-3	-3.982166743E-3
21.02	-7.082610587E-2	-2.097607878E-3	-4.698616363E-3
21.03	-5.515461278E-2	-1.272080774E-3	-5.578776447E-3
21.04	-3.627113999E-2	-5.406644171E-4	-5.681664448E-3
21.05	-1.370199023E-2	-1.947418949E-4	-5.632334522E-3
21.06	1.126845253E-2	-1.187666541E-4	-6.216013545E-3
21.07	3.819204982E-2	8.084306940E-5	-6.937066637E-3
21.080000000000002	6.528965136E-2	6.660158720E-4	-6.371421260E-3
21.09	9.334066011E-2	6.166550798E-4	-5.305654584E-3
21.1	1.230324698E-1	2.039940998E-4	-4.544174211E-3
21.11	1.502403857E-1	1.104014529E-3	-2.907335209E-3
21.12	1.763593154E-1	1.383867823E-3	-1.174487480E-3
21.13	1.979655309E-1	2.185635382E-3	-6.063222006E-4
21.14	2.142086195E-1	3.134881105E-3	-1.724517276E-4
21.150000000000002	2.245408621E-1	2.413080321E-3	1.123287732E-4
21.16	2.282944719E-1	2.672728525E-3	1.865332904E-3
21.17	2.283371930E-1	3.164098036E-3	2.942724460E-3
21.18	2.238134842E-1	2.737008159E-3	3.223796945E-3
21.19	2.157859353E-1	2.432061129E-3	4.463414681E-3
21.2	2.045210355E-1	2.474625131E-3	5.036006857E-3
21.21	1.914206274E-1	2.148917461E-3	5.359445607E-3
21.22	1.778984030E-1	1.029508684E-3	5.570804631E-3
21.23	1.659221805E-1	1.381376886E-4	5.655114315E-3
21.240000000000002	1.554692241E-1	-2.711227530E-4	6.320106545E-3
21.25	1.466914193E-1	-7.125604433E-4	5.413603055E-3
21.26	1.410686922E-1	-4.552701137E-4	5.914880043E-3
21.27	1.383385282E-1	-5.633341953E-4	4.157649607E-3
21.28	1.377574597E-1	6.627243203E-4	2.767585924E-3
21.29	1.375938941E-1	3.022239965E-4	1.272201914E-3
21.3	1.386723366E-1	2.918180683E-4	4.312374646E-4
21.31	1.394964336E-1	8.844938214E-4	1.753780430E-5
21.32	1.403788286E-1	1.983978330E-3	-1.581672181E-3
21.330000000000002	1.373994943E-1	2.171370680E-3	-3.299622737E-3
21.34	1.327042764E-1	2.078278284E-3	-4.429826766E-3
21.35	1.262729800E-1	2.473383818E-3	-4.875576683E-3
21.36	1.160029108E-1	2.850462715E-3	-4.942967866E-3
21.37	1.017720095E-1	1.884823859E-3	-5.782216852E-3
21.38	8.554730226E-2	9.601622136E-4	-6.368710297E-3
21.39	6.666930169E-2	9.948407570E-4	-5.925586844E-3
21.400000000000002	4.552279347E-2	1.363847948E-3	-6.464217835E-3
21.41	2.405471140E-2	1.399521873E-3	-6.521467339E-3
21.42	-4.830383495E-4	9.950766275E-4	-6.237451000E-3
21.43	-2.651709001E-2	-2.006907967E-4	-5.866260210E-3
21.44	-5.246857353E-2	1.274172125E-4	-4.703563003E-3
21.45	-7.499196861E-2	-2.639643415E-3	-5.061163658E-3
21.46	-1.010197157E-1	-1.846989657E-3	-3.771805071E-3
21.47	-1.240770420E-1	-8.602949551E-4	-2.104323133E-3
21.48	-1.478363406E-1	-2.288578009E-3	-4.028901284E-4
21.490000000000002	-1.692955031E-1	-3.017059571E-3	1.312434911E-4
21.5	-1.872956824E-1	-2.902582267E-3	1.487934809E-3
21.51	-2.019384553E-1	-2.787546325E-3	3.717289613E-3
21.52	-2.132230412E-1	-2.702531904E-3	5.372627405E-3
21.53	-2.218873110E-1	-2.824719835E-3	6.118707781E-3
21.54	-2.235918127E-1	-3.096550667E-3	6.214444256E-3
21.55	-2.231566581E-1	-3.181689545E-3	6.742272621E-3
21.56	-2.159010149E-1	-2.514828949E-3	7.462392682E-3
21.57	-2.069507153E-1	-2.951446762E-3	7.266321004E-3
21.580000000000002	-1.947318951E-1	-2.771723758E-3	7.482782585E-3
21.59	-1.801581462E-1	-1.627722584E-3	7.872340337E-3
21.6	-1.671274391E-1	-9.811124015E-4	8.387560984E-3
21.61	-1.546493038E-1	-1.701278299E-3	8.107500387E-3
21.62	-1.439411845E-1	-1.838865321E-3	6.782891284E-3
21.63	-1.361924434E-1	-1.318695323E-3	5.758200965E-3
21.64	-1.317387153E-1	-8.360105787E-4	5.320441735E-3
21.650000000000002	-1.300315620E-1	-5.302209859E-4	4.382680311E-3
21.66	-1.307537244E-1	-8.319470401E-4	3.422997345E-3
21.67	-1.322913069E-1	-6.281428027E-4	2.574166587E-3
21.68	-1.355322273E-1	-1.342459594E-3	6.529420690E-4
21.69	-1.375278989E-1	-9.520588710E-4	-1.443297553E-3
21.7	-1.377104792E-1	-5.518983445E-4	-2.161230797E-3
21.71	-1.364727127E-1	-1.430833214E-3	-3.377999227E-3
21.72	-1.308289051E-1	-1.396611966E-3	-3.926134323E-3
21.73	-1.200448331E-1	-1.349826712E-3	-4.092588250E-3
21.740000000000002	-1.060992905E-1	-8.078690986E-4	-4.471353138E-3
21.75	-8.709055553E-2	-1.483424374E-3	-4.930256668E-3
21.76	-6.587130666E-2	-1.560285243E-3	-4.736881372E-3
21.77	-4.201359220E-2	-1.718265216E-3	-5.568661934E-3
21.78	-1.612019451E-2	-1.883472508E-3	-6.494126905E-3
21.79	1.071631306E-2	-1.137012860E-3	-6.367354368E-3
21.8	3.780816098E-2	-5.373619327E-5	-6.394141228E-3
21.81	6.562334421E-2	8.428267581E-4	-5.860457387E-3
21.82	9.030942396E-2	1.820861257E-3	-5.044547955E-3
21.830000000000002	1.138157386E-1	1.466268787E-3	-4.403032614E-3
21.84	1.371900040E-1	2.174277715E-3	-2.644384843E-3
21.85	1.557458606E-1	3.077710853E-3	-2.368082756E-3
21.86	1.728439644E-1	2.627761282E-3	-1.460143692E-3
21.87	1.878184788E-1	1.907726821E-3	-5.397651752E-4
21.88	1.972176523E-1	1.504170665E-3	-3.930062284E-4
21.89	2.066218459E-1	1.530934911E-3	1.536687884E-3
21.900000000000002	2.108330472E-1	1.559866810E-3	2.320350579E-3
21.91	2.125713415E-1	1.010985539E-3	2.517830751E-3
21.92	2.113924826E-1	1.289995989E-3	2.698151498E-3
21.93	2.073177853E-1	2.070267977E-3	3.765539799E-3
21.94	2.003167377E-1	2.323689691E-3	5.028148847E-3
21.95	1.917046822E-1	2.375258453E-3	4.754796657E-3
21.96	1.822424028E-1	1.994903973E-3	4.568412325E-3
21.97	1.726171196E-1	5.207936469E-4	5.540897531E-3
21.98	1.613258599E-1	-1.139799075E-4	5.687196241E-3
21.990000000000002	1.510685573E-1	1.899128456E-8	5.440023033E-3
22.0	1.432328072E-1	-8.296261868E-4	5.609402900E-3
22.01	1.360263570E-1	-1.383596641E-3	2.634651811E-3
22.02	1.315302524E-1	-8.799249931E-5	2.948591035E-3
22.03	1.279053339E-1	3.496756670E-4	2.136357807E-3
22.04	1.280579870E-1	1.345147248E-3	4.697614791E-4
22.05	1.292668574E-1	1.642154110E-3	-1.420191089E-3
22.06	1.309267906E-1	2.314773884E-3	-2.313896661E-3
22.07	1.315674951E-1	2.896782746E-3	-3.244873222E-3
22.080000000000002	1.301563007E-1	2.840941821E-3	-4.884165574E-3
22.09	1.267610197E-1	2.551223727E-3	-5.191751171E-3
22.1	1.194616469E-1	1.775927596E-3	-4.874692252E-3
22.11	1.068081645E-1	1.252888592E-3	-6.168602747E-3
22.12	9.126556627E-2	5.360029726E-4	-6.256128151E-3
22.13	7.042306385E-2	5.886214599E-4	-5.996502391E-3
22.14	4.686046896E-2	4.712318839E-4	-6.737644427E-3
22.150000000000002	1.885403212E-2	1.874309638E-4	-5.935492272E-3
22.16	-1.231749602E-2	5.228768882E-4	-6.161292630E-3
22.17	-4.387802193E-2	-7.079321907E-4	-6.398118032E-3
22.18	-7.308871321E-2	-9.391142690E-4	-4.104494144E-3
22.19	-1.003308549E-1	-1.290043897E-3	-3.663378284E-3
22.2	-1.265468882E-1	-1.849918438E-3	-2.686611250E-3
22.21	-1.475181209E-1	-1.597560577E-3	-1.792653992E-3
22.22	-1.648335637E-1	-2.202783386E-3	-5.624139851E-4
22.23	-1.799585827E-1	-3.234458018E-3	7.975885039E-4
22.240000000000002	-1.904169040E-1	-3.223314156E-3	1.986249771E-3
22.25	-1.970172809E-1	-3.324803325E-3	3.451113654E-3
22.26	-2.002114735E-1	-4.107950937E-3	4.368814152E-3
22.27	-2.014836516E-1	-3.368788721E-3	4.931542788E-3
22.28	-2.008559940E-1	-3.044787779E-3	5.754729036E-3
22.29	-1.982214053E-1	-2.447874031E-3	6.212158927E-3
22.3	-1.944099579E-1	-1.963519617E-3	7.335171943E-3
