Time (s)	Acceleration x (m/s^2)	Acceleration y (m/s^2)	Acceleration z (m/s^2)
0.0	1.188197258E-3	-4.050691002E-2	-2.534379774E-3
0.01	1.188197258E-3	-4.050691002E-2	-2.534379774E-3
0.02	8.812580192E-5	-2.408705925E-3	1.734884670E-4
0.03	2.761130316E-5	3.191838259E-5	3.456200838E-4
0.04	3.746798940E-5	5.163175514E-5	3.456200838E-4
0.05	3.819733239E-5	5.309044113E-5	3.456200838E-4
0.06	-5.458469742E-4	5.309044113E-5	-1.471406543E-3
0.07	-4.131387325E-4	5.309044113E-5	-6.928500691E-4
0.08	1.010292889E-3	5.309044113E-5	-6.343797416E-4
0.09	-3.202131661E-4	5.309044113E-5	-2.451428533E-3
0.1	-3.095395281E-4	5.309044113E-5	-7.510279876E-4
0.11	3.936035494E-4	5.309044113E-5	-1.543043908E-3
0.12	3.353558174E-4	5.309044113E-5	-6.928407955E-4
0.13	2.434848236E-4	5.309044113E-5	-6.343797416E-4
0.14	8.311848354E-4	7.025529144E-4	-6.343797416E-4
0.15	-1.217172927E-3	-8.199083414E-5	-6.343797416E-4
0.16	7.266660318E-4	-1.036908070E-4	-1.519442252E-3
0.17	1.002285777E-4	-6.981580598E-5	-7.293172427E-4
0.18	-4.523964151E-4	4.388404209E-4	-2.404504763E-3
0.19	8.348223355E-4	3.485904325E-4	-1.709317254E-3
0.2	1.111973338E-4	1.525215449E-3	-7.293172427E-4
0.21	-1.751927643E-3	-9.897205944E-5	-2.404504763E-3
0.22	7.133848072E-4	5.800904387E-4	-1.709317254E-3
0.23	-7.538651660E-4	1.567184184E-3	-1.614379753E-3
0.24	-5.674016711E-5	2.539121709E-3	-2.499442264E-3
0.25	9.232597739E-4	8.629654408E-4	-1.709317254E-3
0.26	1.421660759E-4	3.319246735E-3	-2.499442264E-3
0.27	4.819733214E-5	9.388716822E-4	-1.709317254E-3
0.28	9.242285239E-4	1.538152979E-3	-1.614379753E-3
0.29	1.421660759E-4	1.633090484E-3	-1.614379753E-3
0.3	4.819733214E-5	2.509121592E-3	-7.293172427E-4
0.31	9.422910773E-4	2.594059092E-3	-6.343797416E-4
0.32	-7.228963755E-4	2.584059109E-3	-2.404504763E-3
0.33	-9.027713857E-4	3.459121636E-3	-8.242547438E-4
0.34	-1.196319034E-4	3.536963184E-3	-1.424614126E-3
0.35000000000000003	-7.772217051E-4	3.524191125E-3	-7.422632656E-4
0.36	-5.771419107E-6	4.381059060E-3	-1.519442252E-3
0.37	8.819733113E-5	3.569965505E-3	-2.499442264E-3
0.38	-7.788026864E-4	3.445996653E-3	-1.709317254E-3
0.39	-8.537401349E-4	4.310090263E-3	-7.293172427E-4
0.4	2.422858364E-5	3.499965437E-3	-1.519442252E-3
0.41000000000000003	1.272285801E-4	5.137090204E-3	-1.614379753E-3
0.42	1.281973301E-4	4.410933962E-3	-1.614379753E-3
0.43	1.372285805E-4	5.180090425E-3	-7.293172427E-4
0.44	1.381973306E-4	4.360934233E-3	-1.519442252E-3
0.45	1.023259789E-3	3.350934272E-3	-1.614379753E-3
0.46	2.421660713E-4	4.111058996E-3	-1.614379753E-3
0.47000000000000003	-7.188026108E-4	3.299965405E-3	-7.293172427E-4
0.48	9.492910983E-4	4.052027828E-3	-1.519442252E-3
0.49	2.531348327E-4	3.239965507E-3	-7.293172427E-4
0.5	-6.997713909E-4	2.248996613E-3	-1.519442252E-3
0.51	9.602598297E-4	3.869027791E-3	-2.499442264E-3
0.52	-6.038651414E-4	3.140934070E-3	-1.709317254E-3
0.53	9.602598297E-4	3.006965385E-3	-1.614379753E-3
0.54	2.631348262E-4	2.975996688E-3	-1.614379753E-3
0.55	-6.807401721E-4	2.873746694E-3	-3.384504729E-3
0.56	9.892910303E-4	1.959965464E-3	-9.191922401E-4
0.5700000000000001	1.169166041E-3	1.845027828E-3	-1.519442252E-3
0.58	1.168197292E-3	1.825027844E-3	-1.614379753E-3
0.59	2.741035786E-4	9.380279213E-4	1.557450996E-4
0.6	1.872285777E-4	8.340591945E-4	-5.394422585E-4
0.61	1.881973271E-4	1.700090403E-3	-6.343797416E-4
0.62	-6.697714373E-4	9.080278881E-4	-1.519442252E-3
0.63	1.232598216E-4	-6.294080472E-5	-7.293172427E-4
0.64	2.272285784E-4	7.191216433E-4	-1.519442252E-3
0.65	-6.297714144E-4	-6.294080472E-5	1.557450996E-4
0.66	1.542285701E-4	-1.023909506E-3	-1.424504769E-3
0.67	-6.097714041E-4	-1.983909542E-3	-1.614379753E-3
0.68	1.651973270E-4	-2.887220562E-4	-1.614379753E-3
0.6900000000000001	1.134228537E-3	-9.729407490E-4	-7.293172427E-4
0.7000000000000001	3.431348150E-4	-1.933909450E-3	-6.343797416E-4
0.71	2.481973184E-4	-1.990784507E-3	-6.343797416E-4
0.72	1.115197317E-3	-1.968847044E-3	-1.519442252E-3
0.73	3.231348279E-4	-1.921753206E-3	-2.499442264E-3
0.74	1.104228584E-3	-1.013784550E-3	-8.242547438E-4
0.75	-5.448338985E-4	-1.783909518E-3	-6.343797416E-4
0.76	1.020259821E-3	-1.858847044E-3	-6.343797416E-4
0.77	3.141035722E-4	-1.820784441E-3	-1.519442252E-3
0.78	2.272285784E-4	-1.798846960E-3	-7.293172427E-4
0.79	2.281973290E-4	-1.778846994E-3	2.506826007E-4
0.8	2.281973290E-4	-1.749815793E-3	-1.424504769E-3
0.81	2.372285742E-4	-1.719815844E-3	-1.614379753E-3
0.8200000000000001	1.114228568E-3	-1.707878196E-3	-7.293172427E-4
0.8300000000000001	2.075197274E-3	-1.679815726E-3	-6.343797416E-4
0.84	1.423119149E-3	-1.661857423E-3	-6.343797416E-4
0.85	3.168692014E-4	-1.639331420E-3	-6.343797416E-4
0.86	2.072285786E-4	-1.618847080E-3	-6.343797416E-4
0.87	2.081973281E-4	-1.589815711E-3	-6.343797416E-4
0.88	2.172285733E-4	-1.568846978E-3	-1.519442252E-3
0.89	2.181973228E-4	-1.548847012E-3	-7.293172427E-4
0.9	-6.397713997E-4	-1.519815727E-3	-1.519442252E-3
0.91	-7.227714120E-4	-6.228157703E-4	-7.293172427E-4
0.92	1.030259804E-3	-1.393909524E-3	-6.343797416E-4
0.93	1.209166066E-3	-5.837845445E-4	-1.519442252E-3
0.9400000000000001	1.199166083E-3	-4.869095467E-4	-7.293172427E-4
0.9500000000000001	2.065197291E-3	-4.778783120E-4	2.506826007E-4
0.96	3.880723289E-4	3.991216701E-4	-5.394422585E-4
0.97	1.981973334E-4	4.840591837E-4	-6.343797416E-4
0.98	2.072285786E-4	4.650279240E-4	-1.519442252E-3
0.99	2.172285733E-4	4.630904228E-4	1.040807778E-3
1.0	-6.488026343E-4	1.330090380E-3	-4.445047393E-4
1.01	1.342285830E-4	1.405027906E-3	-1.519442252E-3
1.02	2.281973290E-4	1.385027940E-3	-1.614379753E-3
1.03	1.104228584E-3	2.241059166E-3	-7.293172427E-4
1.04	1.189166016E-3	1.429965433E-3	-6.343797416E-4
1.05	1.179166024E-3	2.182027839E-3	-6.343797416E-4
1.06	3.021660730E-4	2.245996624E-3	-6.343797416E-4
1.07	1.991660829E-4	2.215996675E-3	-6.343797416E-4
1.08	2.072285786E-4	3.071059237E-3	2.506826007E-4
1.09	2.172285733E-4	3.117934151E-3	-5.394422585E-4
1.1	-6.397713997E-4	3.067934050E-3	-1.519442252E-3
1.11	1.442285766E-4	3.008902882E-3	-1.614379753E-3
1.12	-6.197713882E-4	2.957934051E-3	-7.293172427E-4
1.1300000000000001	1.642285786E-4	3.802027694E-3	2.506826007E-4
1.1400000000000001	2.672285803E-4	2.980934138E-3	-5.394422585E-4
1.1500000000000001	2.681973309E-4	3.722996579E-3	2.506826007E-4
1.16	-5.988026682E-4	3.758902912E-3	-5.394422585E-4
1.17	1.751973310E-4	4.556871484E-3	-1.519442252E-3
1.18	2.772285866E-4	4.597934209E-3	1.557450996E-4
1.19	2.781973372E-4	3.671902868E-3	3.456200838E-4
1.2	1.154228592E-3	3.536965416E-3	3.456200838E-4
1.21	3.631348321E-4	2.620934209E-3	3.456200838E-4
1.22	2.681973309E-4	4.248059142E-3	3.456200838E-4
1.23	1.135197288E-3	2.635871659E-3	-5.394422585E-4
1.24	3.431348150E-4	3.292027984E-3	2.506826007E-4
1.25	2.481973184E-4	1.594902917E-3	-5.394422585E-4
1.26	1.124228552E-3	1.394059175E-3	2.506826007E-4
1.27	3.331348214E-4	2.251059149E-3	3.456200838E-4
1.28	2.381973237E-4	1.439965416E-3	-5.394422585E-4
1.29	2.381973237E-4	1.325027949E-3	-1.519442252E-3
1.3	2.381973237E-4	2.181059090E-3	1.557450996E-4
1.31	2.381973237E-4	2.236965390E-3	-1.424504769E-3
1.32	1.114228568E-3	4.539341826E-4	1.557450996E-4
1.33	3.231348279E-4	2.630904366E-4	-5.394422585E-4
1.34	2.281973290E-4	-5.150332131E-4	1.599546767E-4
1.35	-6.268105813E-4	1.022012617E-3	-5.272003579E-4
1.36	-7.137401353E-4	3.480279291E-4	-6.343797416E-4
1.37	-6.937401648E-4	-1.489940740E-3	2.506826007E-4
1.3800000000000001	1.842285867E-4	-1.649815777E-3	-5.394422585E-4
1.3900000000000001	1.154228592E-3	-1.628847063E-3	2.506826007E-4
1.4000000000000001	1.230134789E-3	-7.328157787E-4	-5.394422585E-4
1.41	-5.148339074E-4	-6.278782900E-4	-6.343797416E-4
1.42	1.832598384E-4	-2.369940733E-3	1.144776346E-3
1.43	2.781973372E-4	-1.644753262E-3	-4.435360090E-4
1.44	2.872285719E-4	-2.377784450E-3	-1.519442252E-3
1.45	2.881973203E-4	-1.554753228E-3	-1.614379753E-3
1.46	2.881973203E-4	-1.438847013E-3	-7.293172427E-4
1.47	2.972285759E-4	-2.285846920E-3	-6.343797416E-4
1.48	1.174228560E-3	-1.473784514E-3	-6.343797416E-4
1.49	-4.838651590E-4	-2.225847013E-3	-6.343797416E-4
1.5	1.080259812E-3	-2.280784573E-3	-6.343797416E-4
1.51	1.259166074E-3	-2.249815707E-3	2.506826007E-4
1.52	3.731348361E-4	-2.228846975E-3	1.230682763E-3
1.53	2.021228465E-3	-2.199815774E-3	-4.445047393E-4
1.54	1.314103541E-3	-2.169815825E-3	2.506826007E-4
1.55	1.191103512E-3	-2.139815708E-3	-5.394422585E-4
1.56	3.121660665E-4	-2.109815741E-3	2.506826007E-4
1.57	-6.397713997E-4	-2.070784557E-3	-1.424504769E-3
1.58	-7.137401353E-4	-2.039815691E-3	1.557450996E-4
1.59	-7.027713995E-4	-2.018846959E-3	3.456200838E-4
1.6	1.059291093E-3	-1.998846993E-3	1.230682763E-3
1.61	-5.038651671E-4	-1.960784558E-3	-4.445047393E-4
1.62	1.842285867E-4	-1.938847095E-3	1.135745279E-3
1.6300000000000001	1.154228592E-3	-1.918846961E-3	4.405576030E-4
1.6400000000000001	2.106165981E-3	-1.013784550E-3	-5.394422585E-4
1.6500000000000001	2.180134750E-3	-1.783909518E-3	1.135745279E-3
1.6600000000000001	4.080723160E-4	-9.737845339E-4	4.405576030E-4
1.67	2.181973228E-4	-8.678783014E-4	3.456200838E-4
1.68	-6.488026343E-4	-8.669095531E-4	3.456200838E-4
1.69	1.251973274E-4	9.121691204E-6	3.456200838E-4
1.7	-6.397713997E-4	1.030904406E-4	-5.394422585E-4
1.71	1.442285766E-4	1.030904406E-4	-6.343797416E-4
1.72	1.114228568E-3	1.030904406E-4	-6.343797416E-4
1.73	1.199166083E-3	9.791216639E-4	2.506826007E-4
1.74	3.221660796E-4	1.949121603E-3	1.230682763E-3
1.75	1.095197265E-3	2.015996642E-3	4.405576030E-4
1.76	1.179166024E-3	1.118996652E-3	-5.394422585E-4
1.77	1.160134806E-3	1.005027933E-3	-6.343797416E-4
1.78	2.731348302E-4	1.879121713E-3	2.506826007E-4
1.79	-6.888026561E-4	1.069965401E-3	3.456200838E-4
1.8	-7.637401856E-4	2.707090393E-3	3.456200838E-4
1.81	1.232598216E-4	1.980934178E-3	-5.394422585E-4
1.82	-6.397713997E-4	2.722996601E-3	-6.343797416E-4
1.83	1.532598217E-4	1.918996597E-3	2.506826007E-4
1.84	2.481973184E-4	3.974065939E-3	3.456200838E-4
1.85	1.098862723E-3	2.949141040E-3	-5.138149302E-4
1.86	3.247072514E-4	2.648939521E-3	-6.343797416E-4
1.87	-6.297138589E-4	3.473909473E-3	-6.343797416E-4
1.8800000000000001	-7.037401523E-4	3.517934181E-3	-6.343797416E-4
1.8900000000000001	1.742285827E-4	1.724902883E-3	1.135745279E-3
1.9000000000000001	-5.897713915E-4	2.391059097E-3	4.405576030E-4
1.9100000000000001	1.942285742E-4	4.217090258E-3	1.230682763E-3
1.92	2.881973203E-4	4.330840372E-3	-4.445047393E-4
1.93	2.881973203E-4	3.374809232E-3	-1.519442252E-3
1.94	2.881973203E-4	3.236965217E-3	1.049838845E-3
1.95	2.881973203E-4	3.196965249E-3	1.335620078E-3
1.96	2.881973203E-4	3.156965317E-3	1.335620078E-3
1.97	2.972285759E-4	3.116965385E-3	4.415263333E-4
1.98	2.891660709E-4	2.200934177E-3	3.546514867E-4
1.99	1.173259810E-3	2.075996727E-3	1.240682595E-3
2.0	3.741035845E-4	2.055027844E-3	4.505577362E-4
2.0100000000000002	2.030259700E-3	2.035027860E-3	3.465888502E-4
2.02	4.480723111E-4	2.005996659E-3	3.546514867E-4
2.0300000000000002	1.143259772E-3	1.108996669E-3	1.240682595E-3
2.04	-5.138651591E-4	1.004059185E-3	1.335620078E-3
2.05	-6.837401397E-4	1.089966916E-4	1.335620078E-3
2.06	-6.727714038E-4	8.891216339E-4	1.335620078E-3
2.07	2.042285783E-4	1.070591859E-4	4.505577362E-4
2.08	2.981973265E-4	1.309044214E-5	1.240682595E-3
2.09	1.174228560E-3	-8.448782803E-4	1.335620078E-3
2.1	1.250134839E-3	-6.087830536E-5	4.505577362E-4
2.11	3.631348321E-4	-1.700909503E-3	-5.384734921E-4
2.12	2.772285866E-4	-1.859815793E-3	2.597140036E-4
2.13	2.781973372E-4	-9.628158026E-4	3.556202531E-4
2.14	2.781973372E-4	-8.578783184E-4	3.556202531E-4
2.15	2.781973372E-4	-1.705846974E-3	3.465888502E-4
2.16	-5.888026409E-4	-1.778846994E-3	1.239713829E-3
2.17	1.061228594E-3	-1.749815793E-3	4.415263333E-4
2.18	3.631348321E-4	-1.719815844E-3	3.456200838E-4
2.19	2.681973309E-4	-1.698846962E-3	3.456200838E-4
2.2	2.681973309E-4	-2.554878254E-3	3.456200838E-4
2.21	-5.988026682E-4	-1.734753295E-3	3.456200838E-4
2.22	1.927259714E-3	-2.485846953E-3	3.456200838E-4
2.23	1.305072306E-3	-2.540784504E-3	-5.394422585E-4
2.24	3.321660731E-4	-2.500784572E-3	2.506826007E-4
2.25	1.123259803E-3	-2.460784471E-3	3.456200838E-4
2.2600000000000002	3.331348214E-4	-2.420784521E-3	3.456200838E-4
2.27	2.381973237E-4	-2.380784421E-3	3.456200838E-4
2.2800000000000002	1.114228568E-3	-2.358846940E-3	1.230682763E-3
2.29	-5.438651502E-4	-2.329815739E-3	2.210682624E-3
2.3000000000000003	-7.227714120E-4	-2.290784556E-3	1.420557765E-3
2.31	1.030259804E-3	-2.268846925E-3	2.210682624E-3
2.32	3.421660666E-4	-2.239815706E-3	1.420557765E-3
2.33	2.391660732E-4	-2.209815757E-3	1.325620282E-3
2.34	1.012304475E-3	-2.174655102E-3	-2.548484871E-4
2.35	3.260808468E-4	-2.140212016E-3	2.377365803E-4
2.36	1.961228556E-3	-2.100784506E-3	-5.394422585E-4
2.37	3.780723249E-4	-2.087878278E-3	2.020807622E-3
2.38	1.073259796E-3	-2.059815826E-3	1.420557765E-3
2.39	1.159166058E-3	-2.029815708E-3	1.325620282E-3
2.4	1.158197309E-3	-2.008846976E-3	2.210682624E-3
2.41	2.731348302E-4	-1.979815775E-3	1.420557765E-3
2.42	1.045197342E-3	-1.958847061E-3	1.325620282E-3
2.43	1.138197343E-3	-1.053784500E-3	1.325620282E-3
2.44	1.129166024E-3	-8.087830161E-5	-4.445047393E-4
2.45	2.431348196E-4	-8.539095149E-4	2.506826007E-4
2.46	1.481973252E-4	-9.378782757E-4	3.456200838E-4
2.47	-7.097713761E-4	-9.278782927E-4	3.456200838E-4
2.48	9.486188265E-4	-4.267602638E-5	3.456200838E-4
2.49	2.532239201E-4	9.290334781E-4	3.456200838E-4
2.5	1.581973315E-4	1.470591874E-4	1.230682763E-3
2.5100000000000002	1.034228523E-3	1.805152932E-3	4.405576030E-4
2.52	2.431348196E-4	1.089965452E-3	3.456200838E-4
2.5300000000000002	1.391660801E-4	9.840591350E-4	1.230682763E-3
2.54	1.381973306E-4	2.717090376E-3	4.405576030E-4
2.5500000000000003	1.381973306E-4	2.885027906E-3	2.115745105E-3
2.56	1.014228554E-3	1.970934195E-3	1.420557765E-3
2.57	1.099166066E-3	2.722027853E-3	4.405576030E-4
2.58	2.131348285E-4	3.662027914E-3	1.230682763E-3
2.59	1.181973296E-4	3.716965483E-3	1.325620282E-3
2.6	1.272285801E-4	3.667934148E-3	1.325620282E-3
2.61	1.281973301E-4	1.874902898E-3	1.325620282E-3
2.62	1.281973301E-4	3.408059079E-3	4.405576030E-4
2.63	1.281973301E-4	3.556965383E-3	3.456200838E-4
2.64	-7.388026638E-4	2.631902940E-3	1.230682763E-3
2.65	9.292910391E-4	2.505996573E-3	1.325620282E-3
2.66	2.421660713E-4	3.342996479E-3	4.405576030E-4
2.67	1.033259773E-3	3.387934215E-3	3.456200838E-4
2.68	2.431348196E-4	3.337934150E-3	-5.394422585E-4
2.69	1.024228538E-3	3.287934049E-3	2.506826007E-4
2.7	1.109166049E-3	3.246965350E-3	3.456200838E-4
2.71	-6.438651666E-4	1.454902867E-3	1.230682763E-3
2.72	4.422858120E-5	3.006121516E-3	1.325620282E-3
2.73	1.014228554E-3	3.156965317E-3	4.405576030E-4
2.74	2.321660777E-4	3.116965385E-3	1.230682763E-3
2.75	-7.288026790E-4	2.209965412E-3	1.325620282E-3
2.7600000000000002	9.302597875E-4	1.218996669E-3	1.325620282E-3
2.77	-6.240171147E-4	1.105036414E-3	4.409723259E-4
2.7800000000000002	5.515371326E-5	1.085028808E-3	3.456200838E-4
2.79	1.024228538E-3	1.074059159E-3	3.456200838E-4
2.8000000000000003	1.100134815E-3	1.055027942E-3	1.230682763E-3
2.81	1.974228510E-3	-6.989720226E-4	1.325620282E-3
2.82	1.174103592E-3	-1.087830636E-5	4.405576030E-4
2.83	1.069166033E-3	-7.748783038E-4	3.456200838E-4
2.84	1.060671247E-3	-1.368835162E-4	3.456200838E-4
2.85	1.968692011E-4	-7.318704394E-4	3.456200838E-4
2.86	-7.797714364E-4	-8.378782593E-4	1.230682763E-3
2.87	4.228577048E-6	-1.712940703E-3	2.210682624E-3
2.88	9.832598497E-4	-4.581579674E-5	1.420557765E-3
2.89	1.841035831E-4	-1.590909503E-3	1.325620282E-3
2.9	8.819733113E-5	-1.749815793E-3	1.325620282E-3
2.91	9.732597812E-4	-1.728847079E-3	4.405576030E-4
2.92	1.831348258E-4	-1.699815710E-3	1.230682763E-3
2.93	-7.697713676E-4	-2.554878254E-3	1.325620282E-3
2.94	8.992910901E-4	-2.619815806E-3	1.325620282E-3
2.95	-6.638651326E-4	-2.580784454E-3	1.325620282E-3
2.96	3.325983407E-5	-2.540784504E-3	2.210682624E-3
2.97	1.281973301E-4	-2.509815806E-3	1.420557765E-3
2.98	1.372285805E-4	-2.479815689E-3	2.210682624E-3
2.99	1.381973306E-4	-2.440784487E-3	3.190682449E-3
3.0	1.472285758E-4	-2.409815790E-3	1.515495248E-3
3.0100000000000002	1.481973252E-4	-2.361753203E-3	-4.445047393E-4
3.02	1.481973252E-4	-2.320784505E-3	-6.343797416E-4
3.0300000000000002	1.900259730E-3	-2.289815807E-3	1.135745279E-3
3.04	1.194103558E-3	-2.241753221E-3	-4.445047393E-4
3.0500000000000003	2.131348285E-4	-2.200784522E-3	-6.343797416E-4
3.06	1.181973296E-4	-2.178847060E-3	1.135745279E-3
3.0700000000000003	-1.624833924E-3	-2.149815691E-3	1.325620282E-3
3.08	-3.264641906E-5	-2.119815724E-3	2.210682624E-3
3.09	1.581973315E-4	-2.089815775E-3	1.420557765E-3
3.1	1.672285767E-4	-2.050784591E-3	4.405576030E-4
3.11	-6.897714067E-4	-1.152815768E-3	1.230682763E-3
3.12	1.846291089E-3	-1.923909467E-3	2.210682624E-3
3.13	1.234103593E-3	-1.989815758E-3	5.354950861E-4
3.14	1.129166024E-3	-1.968847044E-3	2.115745105E-3
3.15	1.128197267E-3	-1.948847078E-3	2.305620107E-3
3.16	2.431348196E-4	-1.043784517E-3	1.420557765E-3
3.17	1.572285809E-4	-7.990955326E-5	2.210682624E-3
3.18	1.581973315E-4	-8.448782803E-4	1.420557765E-3
3.19	1.901228480E-3	-1.794878250E-3	4.405576030E-4
3.2	-5.398964398E-4	-1.258158051E-4	-5.394422585E-4
3.21	9.302597875E-4	9.391216409E-4	2.506826007E-4
3.22	-6.338651836E-4	-7.189720818E-4	3.456200838E-4
3.23	6.325983042E-5	-3.087831295E-5	3.456200838E-4
3.24	1.901228480E-3	1.815152917E-3	1.230682763E-3
3.25	2.070134750E-3	2.329654381E-4	1.325620282E-3
3.2600000000000002	1.174103592E-3	9.100904372E-4	4.405576030E-4
3.27	1.931348309E-4	1.870090478E-3	1.230682763E-3
3.2800000000000002	9.819732869E-5	1.945027845E-3	4.405576030E-4
3.29	9.832598497E-4	1.915996626E-3	1.230682763E-3
3.3000000000000003	1.931348309E-4	1.885996677E-3	1.325620282E-3
3.31	9.819732869E-5	1.855996728E-3	4.405576030E-4
3.3200000000000003	-7.597713832E-4	9.680278884E-4	3.456200838E-4
3.33	-8.337401598E-4	3.483121484E-3	1.230682763E-3
3.34	-4.480098377E-5	3.722523342E-3	1.325620282E-3
3.35	-7.169400996E-4	2.813414531E-3	1.325620282E-3
3.36	5.422857473E-5	2.666965404E-3	1.325620282E-3
3.37	1.481973252E-4	3.512027983E-3	1.325620282E-3
3.38	1.481973252E-4	3.566965215E-3	2.210682624E-3
3.39	1.024228538E-3	2.641902905E-3	1.420557765E-3
3.4	-6.338651836E-4	4.268059108E-3	1.325620282E-3
3.41	-8.037401267E-4	3.513840264E-3	4.405576030E-4
3.42	7.422858132E-5	3.367934249E-3	3.456200838E-4
3.43	1.681973262E-4	2.450934143E-3	3.456200838E-4
3.44	-7.078338760E-4	2.325996675E-3	3.456200838E-4
3.45	-7.837401516E-4	3.162996767E-3	3.456200838E-4
3.46	9.422857889E-5	3.225996654E-3	2.124776508E-3
3.47	1.931228602E-3	3.195996519E-3	1.421526531E-3
3.48	1.215072291E-3	1.404902933E-3	1.325620282E-3
3.49	1.109166049E-3	1.204059134E-3	1.325620282E-3
3.5	2.231348273E-4	2.061059099E-3	1.325620282E-3
3.5100000000000002	1.281973301E-4	1.249965366E-3	1.325620282E-3
3.52	-7.388026638E-4	2.020090409E-3	1.325620282E-3
3.5300000000000002	4.422858120E-5	1.218996669E-3	4.405576030E-4
3.54	1.014228554E-3	2.380279402E-4	3.456200838E-4
3.5500000000000003	-6.438651666E-4	1.010090452E-3	2.124776508E-3
3.56	4.422858120E-5	2.180279427E-4	5.364638525E-4
3.5700000000000003	1.381973306E-4	9.991216333E-4	1.230682763E-3
3.58	1.291660802E-4	1.075027908E-3	1.325620282E-3
3.59	-1.614833940E-3	1.880279373E-4	2.219714027E-3
3.6	8.353222864E-4	9.309044012E-5	1.421526531E-3
3.61	1.109166049E-3	-7.739095538E-4	1.325620282E-3
3.62	1.090134832E-3	-1.724878191E-3	4.405576030E-4
3.63	1.070134782E-3	-9.137845337E-4	1.230682763E-3
3.64	1.059166041E-3	-1.683909502E-3	3.104776369E-3
3.65	1.731348270E-4	-1.758847028E-3	2.401526357E-3
3.66	-7.797714364E-4	-1.738847062E-3	1.420557765E-3
3.67	-8.627713695E-4	-1.718847096E-3	1.325620282E-3
3.68	1.422858485E-5	-1.707878196E-3	2.210682624E-3
3.69	1.081973292E-4	-1.679815726E-3	1.420557765E-3
3.7	1.081973292E-4	-2.516815818E-3	4.405576030E-4
3.71	9.751972810E-4	-2.579815705E-3	1.230682763E-3
3.72	1.068197276E-3	-2.549815738E-3	2.210682624E-3
3.73	1.050134806E-3	-2.510784555E-3	5.354950861E-4
3.74	1.030134840E-3	-2.470784454E-3	3.456200838E-4
3.75	1.010134790E-3	-2.448846974E-3	2.115745105E-3
3.7600000000000002	9.991660499E-4	-2.410784538E-3	5.354950861E-4
3.77	-7.628964006E-4	-2.379815673E-3	1.230682763E-3
3.7800000000000002	-5.770891547E-5	-2.349815705E-3	1.325620282E-3
3.79	-8.378339283E-4	-2.310784522E-3	4.405576030E-4
3.8000000000000003	8.292910227E-4	-2.279815824E-3	1.230682763E-3
3.81	1.000134798E-3	-2.240784472E-3	4.405576030E-4
3.8200000000000003	-7.538651660E-4	-2.209815757E-3	1.230682763E-3
3.83	-5.674016711E-5	-2.179815808E-3	1.325620282E-3
3.84	1.603647718E-3	-2.152576026E-3	1.325620282E-3
3.85	2.223672204E-4	-2.120187584E-3	2.198535177E-3
3.86	8.197333148E-6	-2.089815775E-3	1.420557765E-3
3.87	-8.339146522E-7	-1.192815784E-3	2.210682624E-3
3.88	8.651972821E-4	-1.954878341E-3	1.420557765E-3
3.89	-7.938651912E-4	-1.143784534E-3	4.405576030E-4
3.9	7.792910987E-4	-1.028847057E-3	2.115745105E-3
3.91	-7.838651150E-4	-1.017878326E-3	1.420557765E-3
3.92	-8.674016149E-5	-1.883909535E-3	4.405576030E-4
3.93	8.197333148E-6	-1.073784550E-3	1.230682763E-3
3.94	-8.588026476E-4	-9.678783178E-4	1.325620282E-3
3.95	-9.427714109E-4	-9.578782507E-4	1.325620282E-3
3.96	8.102598051E-4	7.951528901E-4	1.325620282E-3
3.97	9.891660669E-4	9.650279083E-4	1.325620282E-3
3.98	1.121660822E-4	9.540591769E-4	1.325620282E-3
3.99	1.819733362E-5	7.705919217E-5	2.210682624E-3
4.0	8.851973354E-4	8.500904454E-4	2.305620107E-3
4.01	9.691661009E-4	9.430904456E-4	2.305620107E-3
4.0200000000000005	9.591660338E-4	9.340592109E-4	1.420557765E-3
4.03	8.216607942E-5	1.800090420E-3	1.325620282E-3
4.04	-8.878339355E-4	9.989966699E-4	1.325620282E-3
4.05	-8.770891887E-5	3.513121610E-3	1.325620282E-3
4.0600000000000005	8.751973507E-4	1.128871672E-3	1.325620282E-3
4.07	8.313483680E-5	2.595152897E-3	2.210682624E-3
4.08	-1.180266489E-5	3.613965328E-3	5.354950861E-4
4.09	-1.180266489E-5	2.790934106E-3	2.115745105E-3
4.1	-2.083391532E-5	4.409027973E-3	1.420557765E-3
4.11	-8.797713668E-4	2.786840357E-3	4.405576030E-4
4.12	-9.627713769E-4	2.565996640E-3	1.230682763E-3
4.13	-9.437401592E-4	2.535996690E-3	1.325620282E-3
4.14	-6.577141689E-5	2.505996573E-3	2.210682624E-3
4.15	3.722858241E-5	3.342996479E-3	1.420557765E-3
4.16	-8.378339283E-4	3.396965282E-3	1.325620282E-3
4.17	8.202597881E-4	2.480934074E-3	1.325620282E-3
4.18	1.321660778E-4	2.346965389E-3	1.325620282E-3
4.19	9.142285392E-4	3.192027799E-3	1.325620282E-3
4.2	-7.438651830E-4	3.237933947E-3	4.405576030E-4
4.21	8.292910227E-4	4.072996525E-3	2.115745105E-3
4.22	1.421660759E-4	3.241903003E-3	1.420557765E-3
4.23	9.061660545E-4	1.363934187E-3	1.325620282E-3
4.24	1.311973294E-4	1.164059193E-3	2.210682624E-3
4.25	3.819733239E-5	1.154059126E-3	1.420557765E-3
4.26	4.722858216E-5	2.002027940E-3	4.405576030E-4
4.2700000000000005	4.819733214E-5	1.198996703E-3	1.230682763E-3
4.28	4.819733214E-5	1.970090326E-3	2.210682624E-3
4.29	3.916608237E-5	1.168996651E-3	1.420557765E-3
4.3	9.051973046E-4	1.931059133E-3	1.325620282E-3
4.3100000000000005	9.891660669E-4	-6.140345135E-4	2.210682624E-3
4.32	9.701348493E-4	-2.087830515E-5	5.354950861E-4
4.33	9.591660338E-4	7.309043917E-5	2.115745105E-3
4.34	-6.153642999E-4	-7.055791874E-4	2.305620107E-3
4.3500000000000005	-9.728953234E-4	-8.780022378E-4	1.432705211E-3
4.36	-8.674016149E-5	-8.678783014E-4	2.210682624E-3
4.37	-8.588026476E-4	-1.733909594E-3	1.420557765E-3
4.38	8.092910567E-4	-1.799815726E-3	1.325620282E-3
4.39	1.221660796E-4	-2.654878270E-3	2.210682624E-3
4.4	2.819733264E-5	-9.587220357E-4	1.420557765E-3
4.41	8.951973199E-4	-2.500909451E-3	2.210682624E-3
4.42	9.881973186E-4	-2.659815738E-3	2.305620107E-3
4.43	1.121660822E-4	-2.629815789E-3	1.420557765E-3
4.44	8.851973354E-4	-1.714753329E-3	2.210682624E-3
4.45	9.691661009E-4	-2.474878221E-3	1.420557765E-3
4.46	9.681973526E-4	-2.539815755E-3	2.210682624E-3
4.47	1.835197310E-3	-2.500784572E-3	1.420557765E-3
4.48	1.901103601E-3	-2.460784471E-3	1.325620282E-3
4.49	1.013134845E-3	-2.420784521E-3	2.210682624E-3
4.5	3.313483386E-5	-2.389815824E-3	2.305620107E-3
4.51	7.961660551E-4	-2.350784472E-3	2.305620107E-3
4.5200000000000005	2.119733460E-5	-2.319815756E-3	2.305620107E-3
4.53	7.861660710E-4	-2.289815807E-3	1.420557765E-3
4.54	-8.738651484E-4	-2.250784455E-3	4.405576030E-4
4.55	-1.767401660E-4	-2.219815740E-3	2.115745105E-3
4.5600000000000005	-8.180266822E-5	-2.189815791E-3	2.305620107E-3
4.57	-7.277141253E-5	-2.159815674E-3	1.420557765E-3
4.58	7.951973057E-4	-2.129815707E-3	1.325620282E-3
4.59	3.134833745E-6	-1.232815801E-3	2.210682624E-3
4.6000000000000005	7.751973363E-4	-1.118847007E-3	2.305620107E-3
4.61	-7.833918650E-6	-1.983909542E-3	1.420557765E-3
4.62	-1.018026692E-4	-2.049815843E-3	1.325620282E-3
4.63	-1.018026692E-4	-2.010784491E-3	1.325620282E-3
4.64	-1.018026692E-4	-1.988847010E-3	2.210682624E-3
4.65	-9.277141348E-5	-1.092815768E-3	2.305620107E-3
4.66	7.751973363E-4	-1.118470527E-4	1.420557765E-3
4.67	8.772285708E-4	-8.929407875E-4	2.210682624E-3
4.68	1.736166042E-3	-9.778783009E-4	5.354950861E-4
4.69	6.710358640E-5	-9.184705711E-5	1.230682763E-3
4.7	-1.218026585E-4	8.695488781E-4	1.325620282E-3
4.71	7.541697661E-4	8.711795683E-5	2.210623251E-3
4.72	8.301348077E-4	-6.909557356E-6	5.354950861E-4
4.73	-4.783391229E-5	2.121692416E-6	1.230682763E-3
4.74	-1.008802669E-3	8.791216492E-4	1.325620282E-3
4.75	-2.077089144E-4	1.831059117E-3	2.210682624E-3
4.76	-1.118026638E-4	1.905027895E-3	1.420557765E-3
4.7700000000000005	-1.118026638E-4	1.875996694E-3	2.210682624E-3
4.78	-1.118026638E-4	1.855027980E-3	1.420557765E-3
4.79	-1.027714186E-4	2.702027887E-3	1.325620282E-3
4.8	-1.018026692E-4	3.651059015E-3	2.210682624E-3
4.8100000000000005	-1.018026692E-4	3.697934248E-3	1.420557765E-3
4.82	-9.688026473E-4	2.771902906E-3	4.405576030E-4
4.83	6.902598227E-4	3.522027798E-3	2.115745105E-3
4.84	1.593171255E-3	3.582986172E-3	2.305620107E-3
4.8500000000000005	9.735461157E-4	2.700997351E-3	2.305620107E-3
4.86	8.391721351E-4	3.412429919E-3	1.421154856E-3
4.87	8.291660593E-4	2.590934073E-3	1.325620282E-3
4.88	-9.148339219E-4	2.465996623E-3	2.210682624E-3
4.89	-2.077089144E-4	2.426965439E-3	5.354950861E-4
4.9	7.461660481E-4	3.272028018E-3	2.115745105E-3
4.91	-3.783391877E-5	2.450934143E-3	2.305620107E-3
4.92	-1.016865154E-3	4.078059226E-3	2.305620107E-3
4.93	1.516291090E-3	4.199871676E-3	5.354950861E-4
4.94	-8.389276385E-4	3.271902802E-3	1.230682763E-3
4.95	-2.277089120E-4	3.136965351E-3	1.325620282E-3
4.96	-1.007833920E-3	3.096965419E-3	1.325620282E-3
4.97	-1.074708882E-3	3.056965319E-3	1.325620282E-3
4.98	-1.062771393E-3	2.140934093E-3	4.405576030E-4
4.99	6.902598227E-4	2.639341802E-4	1.230682763E-3
5.0	2.166085390E-6	1.816121667E-3	4.405576030E-4
5.01	-9.588026620E-4	1.099965435E-3	3.456200838E-4
5.0200000000000005	7.092910403E-4	1.870090478E-3	2.115745105E-3
5.03	-8.448338636E-4	1.926965376E-3	5.354950861E-4
5.04	-1.013740133E-3	1.619966855E-4	1.230682763E-3
5.05	-1.002771402E-3	1.707090418E-3	1.325620282E-3
5.0600000000000005	7.592910485E-4	1.875027946E-3	1.325620282E-3
5.07	6.313483021E-5	-7.640345291E-4	1.325620282E-3
5.08	-3.180266584E-5	-1.618470530E-4	4.405576030E-4
5.09	-4.083391627E-5	-9.429407949E-4	2.115745105E-3
5.1000000000000005	8.161660246E-4	-1.027878309E-3	2.305620107E-3
5.11	3.216607648E-5	-1.008847007E-3	5.354950861E-4
5.12	-6.180266727E-5	-1.855847073E-3	3.456200838E-4
5.13	-6.180266727E-5	-1.919815709E-3	1.230682763E-3
5.14	-9.378338590E-4	-1.898846976E-3	2.210682624E-3
5.15	-1.467401553E-4	-1.869815776E-3	2.305620107E-3
5.16	-9.278338737E-4	-2.715846934E-3	1.420557765E-3
5.17	-1.277089114E-4	-2.779815720E-3	2.210682624E-3
5.18	-3.180266584E-5	-1.864753261E-3	1.420557765E-3
5.19	-3.180266584E-5	-2.624878321E-3	2.210682624E-3
5.2	-2.277141541E-5	-2.680784470E-3	1.420557765E-3
5.21	8.451973127E-4	-2.640784520E-3	1.325620282E-3
5.22	-8.048339225E-4	-2.609815823E-3	1.325620282E-3
5.23	7.692910315E-4	-2.579815705E-3	2.210682624E-3
5.24	9.401348071E-4	-2.531753269E-3	5.354950861E-4
5.25	6.216608186E-5	-2.499815823E-3	2.115745105E-3
5.26	-3.180266584E-5	-2.469815706E-3	2.305620107E-3
5.2700000000000005	8.351973280E-4	-2.430784504E-3	5.354950861E-4
5.28	9.101347739E-4	-2.390784572E-3	3.456200838E-4
5.29	4.119733217E-5	-2.359815707E-3	1.230682763E-3
5.3	8.061660404E-4	-2.329815739E-3	1.325620282E-3
5.3100000000000005	-8.448338636E-4	-2.299815790E-3	4.405576030E-4
5.32	7.202597807E-4	-2.278847076E-3	3.000807447E-3
5.33	3.216607648E-5	-2.249815707E-3	3.285619932E-3
5.34	6.606972970E-4	-2.231857386E-3	3.285619932E-3
5.3500000000000005	8.894082376E-4	-2.200542335E-3	7.016356905E-4
5.36	-8.638651654E-4	-2.169815825E-3	1.230682763E-3
5.37	-1.667401619E-4	-2.139815708E-3	1.325620282E-3
5.38	-7.180266192E-5	-1.233784549E-3	2.210682624E-3
5.39	-9.478339272E-4	-2.003909517E-3	1.420557765E-3
5.4	-1.567401684E-4	-1.193784533E-3	2.210682624E-3
5.41	8.051972898E-4	-2.118470560E-4	1.420557765E-3
5.42	2.216608296E-5	-9.929408025E-4	2.210682624E-3
5.43	-6.277141675E-5	-1.068846998E-3	1.420557765E-3
5.44	-6.180266727E-5	6.851528907E-4	1.325620282E-3
5.45	-6.180266727E-5	-2.940813516E-6	2.210682624E-3
5.46	-7.083391244E-5	-9.690955727E-5	1.420557765E-3
5.47	-9.478339272E-4	-9.690955727E-5	2.210682624E-3
5.48	1.595322215E-3	7.791216345E-4	1.420557765E-3
5.49	-7.589276903E-4	1.731059101E-3	1.325620282E-3
5.5	-1.023740125E-3	1.805027878E-3	1.325620282E-3
5.51	-1.367401618E-4	1.794059147E-3	2.210682624E-3
5.5200000000000005	8.342285780E-4	1.775027929E-3	2.305620107E-3
5.53	1.804228603E-3	2.631059071E-3	2.305620107E-3
5.54	9.950722921E-4	1.819965329E-3	1.420557765E-3
5.55	8.981972852E-4	2.572027903E-3	2.210682624E-3
5.5600000000000005	8.891660505E-4	1.759965431E-3	2.305620107E-3
5.57	8.791660675E-4	1.654059199E-3	5.354950861E-4
5.58	2.166085390E-6	2.511059088E-3	2.115745105E-3
5.59	-9.180266287E-5	2.575996623E-3	2.305620107E-3
5.6000000000000005	-9.588026620E-4	1.678996632E-3	2.305620107E-3
5.61	-1.667401619E-4	3.308059231E-3	2.305620107E-3
5.62	-7.180266192E-5	3.465996619E-3	2.305620107E-3
5.63	-7.180266192E-5	4.284934224E-3	5.354950861E-4
5.64	7.951973057E-4	3.442871466E-3	1.230682763E-3
5.65	8.791660675E-4	2.430934141E-3	1.325620282E-3
5.66	2.166085390E-6	3.182027984E-3	1.325620282E-3
5.67	7.751973363E-4	3.236965217E-3	1.325620282E-3
5.68	8.591661015E-4	4.072996525E-3	1.325620282E-3
5.69	8.491660344E-4	3.250934070E-3	1.325620282E-3
5.7	-8.948338718E-4	3.098902916E-3	4.405576030E-4
5.71	-1.877089078E-4	2.180934211E-3	3.456200838E-4
5.72	-9.678338967E-4	2.055996593E-3	2.115745105E-3
5.73	-1.043740176E-3	2.035027860E-3	5.354950861E-4
5.74	-1.023740125E-3	2.629654318E-4	1.230682763E-3
5.75	-1.367401618E-4	9.491217097E-4	2.210682624E-3
5.76	-4.180266632E-5	1.034059143E-3	1.420557765E-3
5.7700000000000005	8.251973433E-4	1.900090427E-3	2.210682624E-3
5.78	3.313483386E-5	1.098996686E-3	1.420557765E-3
5.79	1.681228482E-3	1.180279414E-4	1.325620282E-3
5.8	1.071035710E-4	2.309044189E-5	1.325620282E-3
5.8100000000000005	-9.083391339E-5	2.309044189E-5	1.325620282E-3
5.82	-8.277141770E-5	2.309044189E-5	2.210682624E-3
5.83	-8.180266822E-5	8.991217026E-4	1.420557765E-3
5.84	-8.686938558E-4	-5.725796360E-4	1.325620282E-3
5.8500000000000005	6.759456111E-4	-9.280036233E-4	1.325620282E-3
5.86	1.218076853E-5	-9.088473779E-4	1.325620282E-3
5.87	7.851973204E-4	-1.764878301E-3	1.325620282E-3
5.88	8.601348499E-4	-2.705846951E-3	1.325620282E-3
5.89	8.581973531E-4	-1.893784461E-3	2.210682624E-3
5.9	-1.783391218E-5	-1.778846994E-3	1.420557765E-3
5.91	-1.118026638E-4	-2.625847069E-3	2.210682624E-3
5.92	7.551972827E-4	-2.689815705E-3	1.420557765E-3
5.93	-9.038651065E-4	-2.659815738E-3	3.095744966E-3
5.94	-1.073740125E-3	-2.629815789E-3	2.400557590E-3
5.95	-1.867401595E-4	-2.590784437E-3	1.420557765E-3
5.96	7.751973363E-4	-2.550784487E-3	1.325620282E-3
5.97	-1.686516382E-5	-2.519815789E-3	1.325620282E-3
5.98	-1.027714186E-4	-2.489815672E-3	3.095744966E-3
5.99	-9.277141348E-5	-2.459815705E-3	2.400557590E-3
6.0	-9.180266287E-5	-1.544753245E-3	2.305620107E-3
6.01	-9.678338967E-4	-2.304878306E-3	2.305620107E-3
6.0200000000000005	6.902598227E-4	-2.360784455E-3	5.354950861E-4
6.03	1.119733056E-5	-2.329815739E-3	1.230682763E-3
6.04	1.661228512E-3	-2.290784556E-3	1.325620282E-3
6.05	8.710357345E-5	-2.259815690E-3	1.325620282E-3
6.0600000000000005	-1.018026692E-4	-2.229815723E-3	1.325620282E-3
6.07	-1.018026692E-4	-2.208847009E-3	1.325620282E-3
6.08	7.651973510E-4	-2.179815808E-3	2.210682624E-3
6.09	-8.802667004E-6	-2.140784456E-3	5.354950861E-4
6.1000000000000005	-1.018026692E-4	-2.109815741E-3	1.230682763E-3
6.11	7.651973510E-4	-2.079815792E-3	1.325620282E-3
6.12	-8.802667004E-6	-2.058847077E-3	1.325620282E-3
6.13	7.651973510E-4	-2.029815708E-3	1.325620282E-3
6.140000000000001	-8.848338798E-4	-1.123784550E-3	2.210682624E-3
6.15	-1.867401595E-4	-1.893909518E-3	1.420557765E-3
6.16	-9.180266287E-5	-1.959815809E-3	4.405576030E-4
6.17	7.751973363E-4	-1.062815819E-3	3.456200838E-4
6.18	8.591661015E-4	-8.184705899E-5	1.230682763E-3
6.19	-8.848338798E-4	8.800903992E-4	1.325620282E-3
6.2	6.712286050E-4	8.802793799E-5	1.325620282E-3
6.21	-8.848338798E-4	8.600904299E-4	2.210682624E-3
6.22	1.556291031E-3	7.705919217E-5	5.354950861E-4
6.23	9.441035265E-4	8.410592107E-4	3.456200838E-4
6.24	-3.686517041E-5	1.809121654E-3	3.000807447E-3
6.25	7.442285480E-4	9.999654182E-4	1.515495248E-3
6.26	8.291660593E-4	2.655152804E-3	1.325620282E-3
6.2700000000000005	-9.238651566E-4	1.930934077E-3	1.325620282E-3
6.28	-1.093740100E-3	2.691059137E-3	1.325620282E-3
6.29	-1.977089119E-4	1.879965413E-3	2.210682624E-3
6.3	-1.018026692E-4	2.650090457E-3	2.305620107E-3
6.3100000000000005	-9.778338819E-4	1.830934079E-3	2.305620107E-3
6.32	-1.062771393E-3	2.591059121E-3	1.420557765E-3
6.33	6.992910573E-4	3.532027949E-3	2.210682624E-3
6.34	1.014165235E-4	2.795753837E-3	1.510728304E-3
6.3500000000000005	7.732977788E-4	4.304383877E-3	1.325620282E-3
6.36	8.781973192E-4	3.573840498E-3	4.405576030E-4
6.37	8.781973192E-4	2.560934142E-3	1.230682763E-3
6.38	1.745197276E-3	3.321059016E-3	3.095744966E-3
6.390000000000001	7.710357993E-5	3.376965316E-3	1.515495248E-3
6.4	7.551972827E-4	3.327933981E-3	1.325620282E-3
6.41	8.391660423E-4	3.286965282E-3	1.325620282E-3
6.42	-3.783391877E-5	1.494902883E-3	1.325620282E-3
6.43	-1.318026648E-4	3.037090391E-3	2.210682624E-3
6.44	-1.318026648E-4	2.310934176E-3	1.420557765E-3
6.45	-1.227714091E-4	2.195027961E-3	2.210682624E-3
6.46	7.451972986E-4	1.289965400E-3	5.354950861E-4
6.47	1.705197335E-3	1.184059159E-3	3.456200838E-4
6.48	4.613484048E-5	2.041059133E-3	3.456200838E-4
6.49	7.161660525E-4	2.105996676E-3	3.000807447E-3
6.5	-9.348338925E-4	2.961059069E-3	1.515495248E-3
6.51	-1.112771401E-3	2.149965327E-3	1.325620282E-3
6.5200000000000005	-2.177089080E-4	1.149965434E-3	1.325620282E-3
6.53	-1.218026585E-4	1.680279397E-4	3.095744966E-3
6.54	-1.218026585E-4	7.309043917E-5	6.304325691E-4
6.55	7.451972986E-4	8.212168960E-5	2.115745105E-3
6.5600000000000005	8.291660593E-4	9.591216945E-4	1.420557765E-3
6.57	-3.880266712E-5	1.680279397E-4	4.405576030E-4
6.58	-1.318026648E-4	6.405918874E-5	3.456200838E-4
6.59	-9.988026008E-4	-1.670909549E-3	3.456200838E-4
6.6000000000000005	-2.067401571E-4	-1.829815844E-3	1.230682763E-3
6.61	7.551972827E-4	-1.799815726E-3	4.405576030E-4
6.62	-1.880266955E-5	-1.778846994E-3	2.115745105E-3
6.63	-9.374016296E-5	-2.634878304E-3	2.305620107E-3
6.640000000000001	7.751973363E-4	-9.477533043E-4	1.420557765E-3
6.65	-7.833918650E-6	-2.472846999E-3	4.405576030E-4
6.66	-9.778338819E-4	-2.629815789E-3	1.230682763E-3
6.67	6.802598396E-4	-2.590784437E-3	2.210682624E-3
6.68	1.197337036E-6	-2.550784487E-3	5.354950861E-4
6.69	-9.180266287E-5	-2.519815789E-3	1.230682763E-3
6.7	-9.180266287E-5	-2.480784437E-3	1.325620282E-3
6.71	7.751973363E-4	-2.449815722E-3	2.210682624E-3
6.72	-7.833918650E-6	-2.419815773E-3	1.420557765E-3
6.73	-1.018026692E-4	-2.398847058E-3	2.210682624E-3
6.74	-9.277141348E-5	-2.360784455E-3	5.354950861E-4
6.75	-9.588026620E-4	-2.320784505E-3	1.230682763E-3
6.76	-1.667401619E-4	-2.289815807E-3	1.325620282E-3
6.7700000000000005	-8.083391761E-5	-2.250784455E-3	1.325620282E-3
6.78	-7.277141253E-5	-2.219815740E-3	4.405576030E-4
6.79	-7.180266192E-5	-2.198847026E-3	2.115745105E-3
6.8	-1.814833800E-3	-2.160784422E-3	1.420557765E-3
6.8100000000000005	6.353223557E-4	-2.138846941E-3	2.210682624E-3
6.82	4.216608955E-5	-2.109815741E-3	5.354950861E-4
6.83	8.151972751E-4	-2.070784557E-3	3.456200838E-4
6.84	1.781712751E-4	-2.051857506E-3	1.820724268E-3
6.8500000000000005	-6.180266727E-5	-1.168003285E-3	1.444292136E-3
6.86	1.672197247E-3	-1.913909484E-3	1.325620282E-3
6.87	9.550723420E-4	-1.103784499E-3	2.210682624E-3
6.88	-8.802667004E-6	-9.888470322E-4	1.420557765E-3
6.890000000000001	-9.277141348E-5	-9.778783009E-4	1.325620282E-3
6.9	7.661661016E-4	-9.588469991E-4	1.325620282E-3
6.91	1.725197310E-3	-8.087830161E-5	1.325620282E-3
6.92	9.241035605E-4	8.891216339E-4	2.210682624E-3
6.93	-4.783391229E-5	1.070591859E-4	1.420557765E-3
6.94	-1.327714143E-4	8.800903992E-4	2.210682624E-3
6.95	-1.318026648E-4	-7.789720730E-4	2.305620107E-3
6.96	7.351973133E-4	7.851528981E-4	2.305620107E-3
6.97	8.191660763E-4	9.640591599E-4	1.420557765E-3
6.98	8.181973280E-4	9.540591769E-4	2.210682624E-3
6.99	8.091660513E-4	7.705919217E-5	1.420557765E-3
7.0	-5.880265868E-5	8.410592107E-4	4.405576030E-4
7.01	-1.518026541E-4	2.667090461E-3	1.230682763E-3
7.0200000000000005	-1.518026541E-4	1.082965440E-3	1.325620282E-3
7.03	-1.427714089E-4	1.760090479E-3	2.210682624E-3
7.04	-1.327714143E-4	2.692996652E-3	5.354950861E-4
7.05	1.602197355E-3	2.755996689E-3	1.230682763E-3
7.0600000000000005	8.941035694E-4	3.583965210E-3	4.405576030E-4
7.07	-7.783391841E-5	2.742871670E-3	3.456200838E-4
7.08	-1.718026667E-4	1.730934230E-3	3.456200838E-4
7.09	-1.038802624E-3	3.349027929E-3	-5.394422585E-4
7.1000000000000005	-1.113740150E-3	3.496965484E-3	1.135745279E-3
7.11	-2.267401636E-4	3.456965216E-3	2.210682624E-3
7.12	-1.227714091E-4	3.407934181E-3	5.354950861E-4
7.13	-9.888026155E-4	2.499965310E-3	1.230682763E-3
7.140000000000001	-1.063740142E-3	3.252027697E-3	2.210682624E-3
7.15	-1.767401660E-4	2.430934141E-3	5.354950861E-4
7.16	-8.180266822E-5	4.058059260E-3	1.230682763E-3
7.17	-8.180266822E-5	3.321902903E-3	1.325620282E-3
7.18	-8.180266822E-5	2.310934176E-3	1.325620282E-3
7.19	-8.180266822E-5	3.062027834E-3	1.325620282E-3
7.2	-8.180266822E-5	3.125996620E-3	2.210682624E-3
7.21	-9.578339125E-4	2.210934160E-3	1.420557765E-3
7.22	-1.667401619E-4	1.218996669E-3	4.405576030E-4
7.23	-9.388026085E-4	1.981059226E-3	3.456200838E-4
7.24	-1.286776597E-4	1.169965418E-3	1.230682763E-3
7.25	-9.078339049E-4	1.940090368E-3	1.325620282E-3
7.26	-1.077089138E-4	1.138996702E-3	4.405576030E-4
7.2700000000000005	8.461660628E-4	1.489966931E-4	1.230682763E-3
7.28	6.216608186E-5	5.309044113E-5	4.405576030E-4
7.29	8.351973280E-4	6.212168893E-5	1.230682763E-3
7.3	5.216608307E-5	1.815152917E-3	1.325620282E-3
7.3100000000000005	8.251973433E-4	2.329654381E-4	1.325620282E-3
7.32	-8.338651232E-4	4.309044065E-5	2.210682624E-3
7.33	-1.277089114E-4	-8.148783264E-4	2.305620107E-3
7.34	-8.381228898E-4	-1.088170740E-4	1.499300003E-3
7.3500000000000005	-1.280883825E-4	-7.938445677E-4	1.325620282E-3
7.36	-2.180266537E-5	-1.754878309E-3	1.325620282E-3
7.37	-8.978339202E-4	-9.528158196E-4	2.210682624E-3
7.38	7.602597969E-4	-8.388470167E-4	1.420557765E-3
7.390000000000001	7.216608064E-5	-2.570909509E-3	1.325620282E-3
7.4	-2.180266537E-5	-1.853784529E-3	1.325620282E-3
7.41	8.451973127E-4	-2.605846935E-3	1.325620282E-3
7.42	5.313483143E-5	-2.669815721E-3	1.325620282E-3
7.43	-4.180266632E-5	-2.630784537E-3	1.325620282E-3
7.44	-9.178338896E-4	-2.599815671E-3	1.325620282E-3
7.45	-1.267401630E-4	-2.560784470E-3	1.325620282E-3
7.46	8.351973280E-4	-2.529815772E-3	2.210682624E-3
7.47	9.191660927E-4	-2.499815823E-3	2.305620107E-3
7.48	-8.338651232E-4	-2.469815706E-3	1.420557765E-3
7.49	7.212285291E-4	-2.421753270E-3	-4.445047393E-4
7.5	8.991660336E-4	-2.389815824E-3	1.135745279E-3
7.51	8.891660505E-4	-2.350784472E-3	4.405576030E-4
7.5200000000000005	3.134833745E-6	-2.310784522E-3	1.230682763E-3
7.53	1.651228528E-3	-2.279815824E-3	2.210682624E-3
7.54	7.710357993E-5	-2.249815707E-3	5.354950861E-4
7.55	-1.118026638E-4	-2.210784505E-3	3.456200838E-4
7.5600000000000005	7.642286015E-4	-2.188847043E-3	2.115745105E-3
7.57	8.491660344E-4	-2.159815674E-3	1.420557765E-3
7.58	-8.948338718E-4	-2.129815707E-3	1.325620282E-3
7.59	-1.967401635E-4	-2.099815758E-3	2.210682624E-3
7.6000000000000005	7.651973510E-4	-2.078847043E-3	2.305620107E-3
7.61	1.734228545E-3	-2.049815843E-3	1.420557765E-3
7.62	9.250723088E-4	-2.019815725E-3	4.405576030E-4
7.63	-3.880266712E-5	-1.113784566E-3	1.230682763E-3
7.640000000000001	7.351973133E-4	-1.007878259E-3	1.325620282E-3
7.65	-4.783391229E-5	-1.864878308E-3	2.210682624E-3
7.66	-1.418026594E-4	-1.938847095E-3	1.420557765E-3
7.67	-1.327714143E-4	-1.758158118E-4	1.325620282E-3
7.68	7.351973133E-4	2.212169191E-5	4.405576030E-4
7.69	-4.783391229E-5	2.309044189E-5	1.230682763E-3
7.7	7.251973292E-4	2.309044189E-5	1.325620282E-3
7.71	-5.783390582E-5	2.309044189E-5	3.095744966E-3
7.72	-1.427714089E-4	8.991217026E-4	6.304325691E-4
7.73	-1.327714143E-4	1.080279433E-4	1.230682763E-3
7.74	7.351973133E-4	8.800903992E-4	1.325620282E-3
7.75	-4.783391229E-5	1.831059117E-3	4.405576030E-4
7.76	-1.008802669E-3	1.905027895E-3	1.230682763E-3
7.7700000000000005	6.502597975E-4	2.752027802E-3	1.325620282E-3
7.78	-3.783391877E-5	2.815996587E-3	1.325620282E-3
7.79	-1.318026648E-4	2.767934169E-3	4.405576030E-4
7.8	-1.007833920E-3	2.735996555E-3	2.115745105E-3
7.8100000000000005	-2.167401596E-4	2.696965353E-3	1.420557765E-3
7.82	-9.978338502E-4	3.532996697E-3	4.405576030E-4
7.83	-1.977089119E-4	3.586965518E-3	1.230682763E-3
7.84	-1.018026692E-4	3.550641156E-3	2.120623613E-3
7.8500000000000005	7.533162875E-4	3.498553017E-3	1.432686348E-3
7.86	-1.783391218E-5	2.580934108E-3	1.325620282E-3
7.87	7.551972827E-4	3.332027916E-3	1.325620282E-3
7.88	8.391660423E-4	2.501902806E-3	4.405576030E-4
7.890000000000001	-3.783391877E-5	2.385027824E-3	1.230682763E-3
7.9	7.351973133E-4	3.232027731E-3	3.095744966E-3
7.91	-3.880266712E-5	2.401902940E-3	6.304325691E-4
7.92	7.171348020E-4	2.257934122E-3	-1.424504769E-3
7.930000000000001	7.991660637E-4	2.235027893E-3	2.810932463E-3
7.94	7.891660807E-4	2.224059162E-3	2.400557590E-3
7.95	-8.783392245E-5	2.195996709E-3	5.354950861E-4
7.96	1.570259732E-3	2.175027827E-3	3.000807447E-3
7.97	8.550723256E-4	1.269965416E-3	1.515495248E-3
7.98	-1.088026624E-4	3.783121701E-3	1.325620282E-3
7.99	6.561660601E-4	1.389840453E-3	4.405576030E-4
8.0	-1.188026709E-4	1.961059091E-3	3.456200838E-4
8.01	6.551973095E-4	1.158996668E-3	2.115745105E-3
8.02	-1.188026709E-4	1.054059193E-3	5.354950861E-4
8.03	-1.087833881E-3	1.680279397E-4	1.230682763E-3
8.040000000000001	-2.967401589E-4	6.405918874E-5	1.325620282E-3
8.05	6.742285715E-4	9.391216409E-4	1.325620282E-3
8.06	7.681973198E-4	1.570591836E-4	2.210682624E-3
8.07	-1.078339140E-4	6.309043869E-5	1.420557765E-3
8.08	6.742285715E-4	6.309043869E-5	2.210682624E-3
8.09	7.591660851E-4	6.309043869E-5	1.420557765E-3
8.1	-1.178339181E-4	-1.679940784E-3	4.405576030E-4
8.11	6.551973095E-4	-9.728157856E-4	1.230682763E-3
8.120000000000001	-1.188026709E-4	-1.734878343E-3	4.405576030E-4
8.13	6.461660749E-4	-2.675847002E-3	3.456200838E-4
8.14	1.605197323E-3	-2.739815788E-3	1.230682763E-3
8.15	-6.289642108E-5	-2.700784436E-3	1.325620282E-3
8.16	-1.127833904E-3	-1.802815679E-3	1.325620282E-3
8.17	5.302598151E-4	-2.555847002E-3	1.325620282E-3
8.18	-1.578339222E-4	-2.619815806E-3	2.210682624E-3
8.19	6.151973287E-4	-2.580784454E-3	1.420557765E-3
8.2	-1.588026706E-4	-2.558846973E-3	1.325620282E-3
8.21	1.482197370E-3	-2.529815772E-3	1.325620282E-3
8.22	-7.483390080E-5	-2.481753186E-3	4.405576030E-4
8.23	-2.618026535E-4	-2.440784487E-3	3.456200838E-4
8.24	-2.527714188E-4	-2.409815790E-3	2.115745105E-3
8.25	-1.118802670E-3	-2.379815673E-3	1.420557765E-3
8.26	-3.267401590E-4	-2.340784471E-3	4.405576030E-4
8.27	6.442285759E-4	-2.300784539E-3	3.456200838E-4
8.28	-1.004833867E-3	-2.278847076E-3	1.230682763E-3
8.290000000000001	-3.067401629E-4	-2.240784472E-3	4.405576030E-4
8.3	-1.078802647E-3	-2.209815757E-3	1.230682763E-3
8.31	-1.162771410E-3	-2.188847043E-3	2.210682624E-3
8.32	-2.767401718E-4	-2.168847077E-3	5.354950861E-4
8.33	6.942285818E-4	-2.148846942E-3	2.115745105E-3
8.34	1.085191562E-6	-2.122565795E-3	1.510393554E-3
8.35	-1.818026730E-4	-2.090185903E-3	1.325620282E-3
8.36	6.942285818E-4	-1.192815784E-3	1.325620282E-3
8.370000000000001	7.881973324E-4	-1.078847066E-3	1.325620282E-3
8.38	7.791660556E-4	-1.067878250E-3	1.325620282E-3
8.39	7.691660681E-4	-1.057878258E-3	1.325620282E-3
8.4	-1.078339140E-4	-1.038847040E-3	1.325620282E-3
8.41	-2.018026623E-4	-1.027878309E-3	2.210682624E-3
8.42	-1.927714066E-4	-1.418470555E-4	5.354950861E-4
8.43	-1.058802676E-3	-4.690955489E-5	3.456200838E-4
8.44	6.092910660E-4	-9.229408255E-4	1.230682763E-3
8.45	-7.783391841E-5	-1.318470567E-4	2.210682624E-3
8.46	-1.047833858E-3	8.300903921E-4	2.305620107E-3
8.47	6.192910580E-4	1.790090428E-3	5.354950861E-4
8.48	-5.880265868E-5	1.129654426E-4	3.456200838E-4
8.49	-1.518026541E-4	1.666121729E-3	3.456200838E-4
8.5	7.151973030E-4	1.825996611E-3	1.230682763E-3
8.51	-5.880265868E-5	1.795996644E-3	4.405576030E-4
8.52	-1.518026541E-4	1.784059164E-3	3.000807447E-3
8.53	-1.018802653E-3	2.632027819E-3	1.515495248E-3
8.540000000000001	6.402598145E-4	1.810934094E-3	4.405576030E-4
8.55	8.191660763E-4	3.456121665E-3	2.115745105E-3
8.56	8.091660513E-4	2.721902805E-3	1.420557765E-3
8.57	7.991660637E-4	2.586965354E-3	4.405576030E-4
8.58	7.801348040E-4	1.670934146E-3	-5.394422585E-4
8.59	7.691660681E-4	3.298059079E-3	1.135745279E-3
8.6	-1.078339140E-4	1.694902916E-3	4.405576030E-4
8.61	-1.837401719E-4	3.228059021E-3	1.230682763E-3
8.620000000000001	6.942285818E-4	2.509965443E-3	2.210682624E-3
8.63	-8.783392245E-5	2.385996591E-3	1.420557765E-3
8.64	-1.818026730E-4	6.039341562E-4	4.405576030E-4
8.65	1.552197262E-3	2.156121647E-3	1.230682763E-3
8.66	-2.289642595E-5	1.439965416E-3	4.405576030E-4
8.67	-2.118026686E-4	3.953121608E-3	1.230682763E-3
8.68	-2.027714129E-4	2.435871627E-3	2.210682624E-3
8.69	6.561660601E-4	2.225027910E-3	1.420557765E-3
8.700000000000001	-1.278339056E-4	2.195996709E-3	4.405576030E-4
8.71	6.451973265E-4	1.280934166E-3	3.456200838E-4
8.72	7.291660475E-4	1.165027941E-3	3.456200838E-4
8.73	-1.478339182E-4	1.154059126E-3	1.230682763E-3
8.74	-1.108802600E-3	1.135027899E-3	4.405576030E-4
8.75	-3.167401459E-4	1.115027933E-3	3.456200838E-4
8.76	-2.127714169E-4	2.280279362E-4	1.230682763E-3
8.77	6.461660749E-4	9.910591481E-4	1.325620282E-3
8.78	-1.288026539E-4	1.980279361E-4	4.405576030E-4
8.790000000000001	6.451973265E-4	1.030904406E-4	1.230682763E-3
8.8	-1.378339096E-4	1.030904406E-4	1.325620282E-3
8.81	6.442285759E-4	-7.639095690E-4	1.325620282E-3
8.82	7.291660475E-4	-1.723909443E-3	1.325620282E-3
8.83	7.191660599E-4	-1.798846960E-3	2.210682624E-3
8.84	-7.343287158E-4	-1.044305384E-3	1.568068155E-3
8.85	-4.214887033E-4	-7.889265489E-4	5.432891410E-4
8.86	-2.218026516E-4	-1.636790566E-3	-5.310991152E-4
8.870000000000001	-1.097833864E-3	-1.709815693E-3	2.506826007E-4
8.88	-2.977089072E-4	-1.697878195E-3	1.230682763E-3
8.89	6.561660601E-4	-1.678846978E-3	1.325620282E-3
8.9	-1.188026709E-4	-7.828157779E-4	2.210682624E-3
8.91	-2.118026686E-4	-1.553909532E-3	1.420557765E-3
8.92	-2.027714129E-4	-2.504878170E-3	1.325620282E-3
8.93	6.561660601E-4	-2.542722000E-3	-4.445047393E-4
8.94	-1.188026709E-4	-2.509815806E-3	1.135745279E-3
8.950000000000001	6.551973095E-4	-2.479815689E-3	1.325620282E-3
8.96	-1.188026709E-4	-2.440784487E-3	1.325620282E-3
8.97	-2.118026686E-4	-2.409815790E-3	4.405576030E-4
8.98	6.551973095E-4	-2.379815673E-3	2.115745105E-3
8.99	7.301347958E-4	-2.349815705E-3	1.420557765E-3
9.0	7.281972946E-4	-2.319815756E-3	1.325620282E-3
9.01	-1.388026625E-4	-2.289815807E-3	4.405576030E-4
9.02	-2.318026579E-4	-2.259815690E-3	1.230682763E-3
9.03	1.520259810E-3	-2.238846958E-3	2.210682624E-3
9.040000000000001	-9.289276719E-4	-2.209815757E-3	1.420557765E-3
9.05	-1.193740116E-3	-2.179815808E-3	4.405576030E-4
9.06	-2.977089072E-4	-2.149815691E-3	2.115745105E-3
9.07	6.651973369E-4	-2.110784489E-3	-3.495672562E-4
9.08	-9.938651308E-4	-1.203784516E-3	2.506826007E-4
9.09	-2.967401589E-4	-1.964878324E-3	2.115745105E-3
9.1	-2.018026623E-4	-2.038846943E-3	1.420557765E-3
9.11	-2.018026623E-4	-2.009815724E-3	1.325620282E-3
9.120000000000001	6.742285715E-4	-1.103784499E-3	2.210682624E-3
9.13	7.591660851E-4	-9.978782669E-4	5.354950861E-4
9.14	-9.938651308E-4	-1.118470527E-4	1.230682763E-3
9.15	-2.786776685E-4	-8.839095529E-4	4.405576030E-4
9.16	6.761660705E-4	-9.678783178E-4	1.230682763E-3
9.17	7.591660851E-4	-8.184705899E-5	4.405576030E-4
9.18	7.491660600E-4	-8.629407496E-4	2.115745105E-3
9.19	-1.188026709E-4	-7.184705184E-5	1.420557765E-3
9.200000000000001	6.642285862E-4	2.642152851E-3	2.210682624E-3
9.21	-1.268651527E-4	2.859654326E-4	2.305620107E-3
9.22	-2.127714169E-4	2.613121647E-3	1.420557765E-3
9.23	-2.118026686E-4	1.989965413E-3	1.325620282E-3
9.24	6.460319953E-4	9.991363949E-4	1.325620282E-3
9.25	-1.287881158E-4	2.637061258E-3	4.405724440E-4
9.26	-1.097833864E-3	1.910934111E-3	1.230682763E-3
9.27	-3.067401629E-4	1.795027895E-3	2.210682624E-3
9.28	-1.087833881E-3	2.632996568E-3	5.354950861E-4
9.290000000000001	-1.172771393E-3	1.819965329E-3	1.230682763E-3
9.3	-2.867401548E-4	3.457090414E-3	1.325620282E-3
9.31	-1.058802676E-3	4.473965357E-3	4.405576030E-4
9.32	-2.667401678E-4	2.756840390E-3	2.115745105E-3
9.33	-1.718026667E-4	3.412027798E-3	1.420557765E-3
9.34	-9.323289319E-4	2.703361629E-3	5.572533333E-4
9.35	-2.737407525E-4	3.315721218E-3	1.213682160E-3
9.36	7.142285524E-4	3.386965485E-3	2.210682624E-3
9.370000000000001	7.991660637E-4	2.470934109E-3	5.354950861E-4
9.38	7.981973154E-4	3.222027917E-3	1.230682763E-3
9.39	7.891660807E-4	3.267934083E-3	1.325620282E-3
9.4	7.701348210E-4	2.341902874E-3	4.405576030E-4
9.41	-9.748339131E-4	2.225027910E-3	1.230682763E-3
9.42	-2.767401718E-4	2.195996709E-3	1.325620282E-3
9.43	-1.933865035E-3	3.042027868E-3	1.325620282E-3
9.44	-3.426463912E-4	1.353934186E-3	1.325620282E-3
9.450000000000001	-1.018802653E-3	3.773121550E-3	1.325620282E-3
9.46	-2.267401636E-4	1.379840368E-3	1.325620282E-3
9.47	-1.318026648E-4	1.951059099E-3	1.325620282E-3
9.48	1.611228589E-3	1.148996685E-3	1.325620282E-3
9.49	1.780134870E-3	1.035027892E-3	4.405576030E-4
9.5	8.931348210E-4	1.024059151E-3	3.456200838E-4
9.51	7.891660807E-4	1.005027933E-3	3.456200838E-4
9.52	-8.783392245E-5	9.940592021E-4	1.230682763E-3
9.53	6.851973051E-4	9.840591350E-4	4.405576030E-4
9.540000000000001	-9.558026114E-4	1.070591859E-4	3.456200838E-4
9.55	-2.477088990E-4	-8.539095149E-4	3.456200838E-4
9.56	-1.427714089E-4	-7.087830348E-5	3.456200838E-4
9.57	-1.418026594E-4	2.309044189E-5	2.115745105E-3
9.58	-1.418026594E-4	-8.348782956E-4	1.420557765E-3
9.59	-1.008802669E-3	-9.178783096E-4	2.210682624E-3
9.6	6.502597975E-4	-8.898157732E-4	1.420557765E-3
9.61	8.291660593E-4	-8.778782845E-4	4.405576030E-4
9.620000000000001	8.191660763E-4	-1.734878343E-3	3.456200838E-4
9.63	8.091660513E-4	-2.684878237E-3	1.230682763E-3
9.64	7.901348291E-4	-1.855722026E-3	-4.445047393E-4
9.65	-9.548338585E-4	-2.605846935E-3	1.135745279E-3
9.66	-1.123740133E-3	-2.660784486E-3	4.405576030E-4
9.67	6.392910661E-4	-2.629815789E-3	1.230682763E-3
9.68	-4.783391229E-5	-2.599815671E-3	1.325620282E-3
9.69	7.342285638E-4	-2.560784470E-3	1.325620282E-3
9.700000000000001	8.191660763E-4	-1.653784496E-3	2.210682624E-3
9.71	8.181973280E-4	-2.405847070E-3	5.354950861E-4
9.72	1.685197369E-3	-2.469815706E-3	1.230682763E-3
9.73	1.710358723E-5	-2.439815739E-3	2.210682624E-3
9.74	-1.718026667E-4	-2.400784555E-3	1.420557765E-3
9.75	6.951973325E-4	-2.378846924E-3	2.210682624E-3
9.76	-8.783392245E-5	-2.349815705E-3	1.420557765E-3
9.77	-1.727714173E-4	-2.310784522E-3	1.325620282E-3
9.78	-1.718026667E-4	-2.279815824E-3	1.325620282E-3
9.790000000000001	-1.718026667E-4	-2.249815707E-3	1.325620282E-3
9.8	-1.038802624E-3	-2.210784505E-3	4.405576030E-4
9.81	-2.467401507E-4	-2.179815808E-3	1.230682763E-3
9.82	-1.027696986E-3	-2.158849748E-3	2.210544310E-3
9.83	-2.277239045E-4	-2.129816161E-3	2.305620107E-3
9.84	6.375816752E-4	-2.102866241E-3	1.520207047E-3
9.85	-3.417918382E-5	-2.061347655E-3	4.543531050E-4
9.86	-1.418026594E-4	-2.029815708E-3	1.230682763E-3
9.870000000000001	-1.327714143E-4	-2.008846976E-3	1.325620282E-3
9.88	-1.227714091E-4	-1.979815775E-3	1.325620282E-3
9.89	7.451972986E-4	-1.073784550E-3	1.325620282E-3
9.9	-1.771833896E-3	-9.678783178E-4	-4.445047393E-4
9.91	-2.882677574E-3	-9.488470161E-4	-6.343797416E-4
9.92	-3.166151562E-4	-9.378782757E-4	2.506826007E-4
9.93	8.351973280E-4	-6.087830536E-5	1.230682763E-3
9.94	9.191660927E-4	-8.248783110E-4	1.325620282E-3
9.950000000000001	4.216608955E-5	-4.990955953E-5	4.405576030E-4
9.96	-9.278338737E-4	4.309044065E-5	3.456200838E-4
9.97	-9.947089158E-4	1.786121713E-3	-5.394422585E-4
9.98	-1.849771393E-3	1.069965401E-3	-6.343797416E-4
9.99	-1.914708936E-3	1.840090352E-3	2.506826007E-4
10.0	-1.416776701E-4	1.029965451E-3	1.230682763E-3
10.01	4.819733214E-5	3.543121737E-3	1.325620282E-3
10.02	-2.561833858E-3	2.901902872E-3	4.405576030E-4
10.03	-2.814708897E-3	2.766965421E-3	3.456200838E-4
10.040000000000001	-1.032646397E-3	1.850934213E-3	3.456200838E-4
10.05	3.422858242E-5	2.611059105E-3	1.230682763E-3
10.06	-7.388026638E-4	2.657934170E-3	-4.445047393E-4
10.07	-8.137401097E-4	3.483965362E-3	2.506826007E-4
10.08	-8.027713693E-4	1.784902865E-3	3.456200838E-4
10.09	7.422858132E-5	2.442027938E-3	-5.394422585E-4
10.1	1.591660810E-4	4.239996487E-3	2.506826007E-4
10.11	1.672285767E-4	3.501902934E-3	1.230682763E-3
10.120000000000001	1.681973262E-4	3.366965519E-3	1.325620282E-3
10.13	-1.574833833E-3	3.317934184E-3	4.405576030E-4
10.14	-2.610740145E-3	1.524902934E-3	3.456200838E-4
10.15	-9.226463973E-4	3.067090517E-3	3.456200838E-4
10.16	1.351973314E-4	2.340934143E-3	1.230682763E-3
10.17	-6.388026491E-4	2.206965441E-3	4.405576030E-4
10.18	-7.137401353E-4	3.033965382E-3	-5.394422585E-4
10.19	-1.569771314E-3	2.219965395E-3	2.506826007E-4
10.200000000000001	-2.510740129E-3	1.219965417E-3	-5.394422585E-4
10.21	4.435357615E-5	1.105027950E-3	1.144776346E-3
10.22	1.195197279E-3	1.085027900E-3	1.335620078E-3
10.23	-2.206896426E-3	1.950090351E-3	1.335620078E-3
10.24	-1.678677691E-3	2.006965408E-3	-4.345047743E-4
10.25	-6.877089057E-4	1.118027904E-3	1.145745094E-3
10.26	2.661660707E-4	1.014059168E-3	1.335620078E-3
10.27	3.491660831E-4	1.880090461E-3	1.335620078E-3
10.28	3.481973347E-4	2.029654444E-4	1.335620078E-3
10.290000000000001	-1.403865175E-3	8.800903992E-4	4.505577362E-4
10.3	-6.977088887E-4	9.705918776E-5	-5.294422574E-4
10.31	-1.450740080E-3	-8.639094996E-4	-6.243797585E-4
10.32	-6.567401482E-4	-9.478782587E-4	-6.243797585E-4
10.33	3.142285777E-4	-6.184705371E-5	1.145745094E-3
10.34	1.187085590E-3	-7.457978120E-4	1.335620078E-3
10.35	4.863368646E-4	-1.773139256E-3	4.626674504E-4
10.36	-4.888026688E-4	-2.725846917E-3	3.556202531E-4
10.370000000000001	-1.448802584E-3	-1.913784427E-3	1.240682595E-3
10.38	1.086291085E-3	-1.798846960E-3	1.335620078E-3
10.39	-3.928964193E-4	-2.645847035E-3	4.505577362E-4
10.4	-1.448802584E-3	-2.709815671E-3	3.556202531E-4
10.41	-6.477089135E-4	-2.670784469E-3	2.125745274E-3
10.42	1.191228560E-3	-2.639815772E-3	1.430557598E-3
10.43	-1.249896351E-3	-2.609815823E-3	4.505577362E-4
10.44	2.292910896E-4	-2.579815705E-3	1.240682595E-3
10.450000000000001	-1.315802645E-3	-2.531753269E-3	-4.345047743E-4
10.46	-6.077088974E-4	-2.490784420E-3	-6.243797585E-4
10.47	-1.369771370E-3	-2.441753236E-3	-6.243797585E-4
10.48	-1.443740148E-3	-2.400784555E-3	-6.243797585E-4
10.49	-5.477089062E-4	-2.378846924E-3	2.030807773E-3
10.5	-1.327833848E-3	-2.340784471E-3	5.454952553E-4
10.51	-1.412771358E-3	-2.309815773E-3	3.556202531E-4
10.52	-5.177089061E-4	-2.270784422E-3	-5.294422574E-4
10.53	-1.270740107E-3	-2.230784471E-3	-6.243797585E-4
10.540000000000001	-4.767401325E-4	-2.190784539E-3	-6.243797585E-4
10.55	-1.248802635E-3	-2.159815674E-3	2.606827520E-4
10.56	-4.477088898E-4	-2.120784472E-3	-5.294422574E-4
10.57	5.151973168E-4	-2.080784540E-3	2.606827520E-4
10.58	-1.134833921E-3	-2.049815843E-3	3.556202531E-4
10.59	-1.303740115E-3	-2.019815725E-3	3.556202531E-4
10.6	-1.283740140E-3	-1.998846993E-3	3.556202531E-4
10.61	-3.967401543E-4	-1.102815751E-3	3.556202531E-4
10.620000000000001	-3.018026554E-4	-9.978782669E-4	3.556202531E-4
10.63	-2.927713997E-4	-1.118470527E-4	3.556202531E-4
10.64	-2.918026491E-4	-1.759940829E-3	3.556202531E-4
10.65	-2.827714144E-4	-1.052815752E-3	3.556202531E-4
10.66	-1.148802623E-3	-9.478782587E-4	1.240682595E-3
10.67	-1.223740149E-3	-7.087830348E-5	-4.345047743E-4
10.68	-3.367401630E-4	2.309044189E-5	2.606827520E-4
10.69	-1.099771366E-3	2.309044189E-5	3.556202531E-4
10.700000000000001	-1.182771376E-3	2.309044189E-5	3.556202531E-4
10.71	-1.172771393E-3	-1.719940722E-3	3.556202531E-4
10.72	-1.162771410E-3	-1.458158000E-4	3.556202531E-4
10.73	-1.143740108E-3	9.281529065E-4	1.240682595E-3
10.74	-2.567401547E-4	1.890090444E-3	1.335620078E-3
10.75	-1.618026604E-4	2.832027852E-3	4.505577362E-4
10.76	-1.618026604E-4	2.877934168E-3	3.556202531E-4
10.77	-1.913865065E-3	2.845996554E-3	1.240682595E-3
10.78	-3.316776493E-4	2.815996587E-3	1.335620078E-3
10.790000000000001	2.477259713E-3	2.776965404E-3	1.335620078E-3
10.8	-7.549588868E-4	3.603965513E-3	-4.345047743E-4
10.81	-1.122771384E-3	3.647934182E-3	1.145745094E-3
10.82	-1.979771359E-3	2.730934208E-3	1.335620078E-3
10.83	-1.177708860E-3	3.472996463E-3	4.505577362E-4
10.84	-1.074276582E-3	3.540512239E-3	1.830724437E-3
10.85	-1.063013580E-3	3.471566926E-3	-2.683641293E-4
10.86	-1.767401660E-4	3.417934014E-3	2.606827520E-4
10.870000000000001	-1.824833954E-3	3.367934249E-3	3.556202531E-4
10.88	-1.108677644E-3	3.308902781E-3	-5.294422574E-4
10.89	-1.869771359E-3	2.390934041E-3	2.606827520E-4
10.9	-1.058677626E-3	3.132996632E-3	3.556202531E-4
10.91	-7.674016271E-5	3.177934049E-3	3.556202531E-4
10.92	1.819733362E-5	2.251902840E-3	3.556202531E-4
10.93	-8.578338975E-4	2.125996642E-3	3.556202531E-4
10.94	8.002598221E-4	2.086965458E-3	-5.294422574E-4
10.950000000000001	9.701348493E-4	1.179965401E-3	-6.243797585E-4
10.96	9.216608723E-5	1.941059116E-3	2.606827520E-4
10.97	-1.802664416E-6	1.129965384E-3	3.556202531E-4
10.98	-1.744833908E-3	1.024059151E-3	3.556202531E-4
10.99	-1.913740188E-3	1.005027933E-3	1.240682595E-3
11.0	-1.875677584E-3	9.850278833E-4	-4.345047743E-4
11.01	-1.107089100E-4	9.650279083E-4	2.606827520E-4
11.02	-1.664833863E-3	9.540591769E-4	1.240682595E-3
11.03	-9.577088616E-4	7.705919217E-5	4.505577362E-4
11.040000000000001	-8.437401428E-4	-1.690955638E-5	3.556202531E-4
11.05	-8.327714114E-4	-1.690955638E-5	3.556202531E-4
11.06	4.422858120E-5	-8.748783182E-4	-5.294422574E-4
11.07	1.381973306E-4	-9.578782507E-4	-6.243797585E-4
11.08	-7.288026790E-4	-9.388470240E-4	2.606827520E-4
11.09	-1.688802553E-3	-1.803909484E-3	1.240682595E-3
11.1	-8.877088784E-4	-1.878847010E-3	4.505577362E-4
11.11	-7.827714033E-4	-9.828157686E-4	1.240682595E-3
11.120000000000001	-7.727714202E-4	-1.744878326E-3	-4.345047743E-4
11.13	1.042285829E-4	-2.694878220E-3	2.606827520E-4
11.14	1.065197312E-3	-2.750784519E-3	3.556202531E-4
11.15	2.731348302E-4	-2.719815822E-3	1.240682595E-3
11.16	1.691660768E-4	-2.671753235E-3	4.505577362E-4
11.17	1.681973262E-4	-1.763784496E-3	-5.294422574E-4
11.18	1.591660810E-4	-2.506815667E-3	-6.243797585E-4
11.19	-6.997713909E-4	-2.560784470E-3	-6.243797585E-4
11.200000000000001	-7.827728146E-4	-2.529820006E-3	2.605444383E-4
11.21	-7.727715717E-4	-2.490785026E-3	3.556202531E-4
11.22	-1.638802629E-3	-2.459815705E-3	3.556202531E-4
11.23	-8.377088792E-4	-2.420784521E-3	3.556202531E-4
11.24	-1.599771436E-3	-2.389815824E-3	3.556202531E-4
11.25	-7.977089051E-4	-2.341753237E-3	-5.294422574E-4
11.26	-6.927714164E-4	-2.300784539E-3	-6.243797585E-4
11.27	-6.737401567E-4	-2.260784438E-3	-6.243797585E-4
11.28	1.951973226E-4	-2.202722019E-3	-6.243797585E-4
11.290000000000001	2.791660856E-4	-2.169815825E-3	-6.243797585E-4
11.3	2.781973372E-4	-2.139815708E-3	2.606827520E-4
11.31	2.781973372E-4	-2.109815741E-3	1.240682595E-3
11.32	-5.888026409E-4	-2.088847026E-3	1.335620078E-3
11.33	-6.727714038E-4	-2.068847060E-3	4.505577362E-4
11.34	8.862046303E-5	-2.043391216E-3	1.123882663E-3
11.35	-1.411312461E-3	-2.001479233E-3	-4.004623142E-4
11.36	-1.604708904E-3	-1.978847027E-3	2.606827520E-4
11.370000000000001	-7.077089138E-4	-1.940784592E-3	-5.294422574E-4
11.38	-6.118026643E-4	-1.918846961E-3	2.606827520E-4
11.39	2.642285695E-4	-1.889815742E-3	3.556202531E-4
11.4	-5.178339160E-4	-9.928157516E-4	2.125745274E-3
11.41	1.140259803E-3	8.551529654E-4	1.430557598E-3
11.42	-4.238651678E-4	-7.089720056E-4	1.335620078E-3
11.43	2.642285695E-4	-8.788470328E-4	4.505577362E-4
11.44	3.491660831E-4	8.661216968E-4	-5.294422574E-4
11.450000000000001	-5.188026644E-4	1.902027933E-3	-6.243797585E-4
11.46	-6.027713876E-4	-6.350033120E-4	-6.243797585E-4
11.47	-6.018026347E-4	-8.988470079E-4	-6.243797585E-4
11.48	-6.018026347E-4	-1.754878309E-3	2.606827520E-4
11.49	1.141228556E-3	-8.581580992E-5	-5.294422574E-4
11.5	4.250723200E-4	9.700904292E-4	-6.243797585E-4
11.51	1.195197279E-3	1.054059193E-3	2.606827520E-4
11.52	4.031348272E-4	1.911059167E-3	3.556202531E-4
11.53	1.175197311E-3	1.975996710E-3	3.556202531E-4
11.540000000000001	3.741035845E-4	2.812996634E-3	-5.294422574E-4
11.55	2.781973372E-4	1.990934161E-3	1.145745094E-3
11.56	-5.888026409E-4	9.989966699E-4	4.505577362E-4
11.57	-6.637401692E-4	8.850279511E-4	-1.414504768E-3
11.58	-1.528802630E-3	2.617090368E-3	1.657452508E-4
11.59	-1.603740156E-3	3.624934227E-3	-5.294422574E-4
11.6	1.592910854E-4	3.658902745E-3	-6.243797585E-4
11.61	-5.278338990E-4	3.589871745E-3	-6.243797585E-4
11.620000000000001	2.451973308E-4	2.670934142E-3	1.145745094E-3
11.63	3.381973284E-4	1.660934163E-3	4.505577362E-4
11.64	-5.288026496E-4	1.545027863E-3	-5.294422574E-4
11.65	2.542285865E-4	1.515996654E-3	-6.243797585E-4
11.66	3.391660791E-4	2.362027896E-3	-6.243797585E-4
11.67	-5.288026496E-4	2.425996691E-3	2.606827520E-4
11.68	-6.218026473E-4	-2.230658088E-4	3.556202531E-4
11.69	-6.127714126E-4	1.245152950E-3	3.556202531E-4
11.700000000000001	-1.469771303E-3	5.389966642E-4	-5.294422574E-4
11.71	1.902598429E-4	-4.329407816E-4	2.606827520E-4
11.72	-5.068651381E-4	-5.178782906E-4	3.556202531E-4
11.73	2.742285780E-4	-5.169095423E-4	3.556202531E-4
11.74	2.102197259E-3	3.591216915E-4	-5.294422574E-4
11.75	1.394103507E-3	-1.289940793E-3	2.606827520E-4
11.76	1.271103554E-3	-2.325847029E-3	-5.294422574E-4
11.77	3.741035845E-4	-2.389815824E-3	2.606827520E-4
11.78	2.781973372E-4	-1.483784515E-3	3.556202531E-4
11.790000000000001	-1.464833833E-3	-2.235846996E-3	3.556202531E-4
11.8	-7.486776362E-4	-1.423784515E-3	-5.294422574E-4
11.81	-1.518802642E-3	-1.299815813E-3	-6.243797585E-4
11.82	-7.086776621E-4	-2.145846971E-3	-6.243797585E-4
11.83	-6.027713876E-4	-2.209815757E-3	2.606827520E-4
11.84	1.931214412E-4	-2.182324272E-3	1.158739314E-3
11.85	3.592761422E-4	-2.150145914E-3	4.613449661E-4
11.86	3.491660831E-4	-2.110784489E-3	-5.294422574E-4
11.870000000000001	-5.097713877E-4	-2.070784557E-3	-6.243797585E-4
11.88	2.742285780E-4	-2.048847094E-3	2.606827520E-4
11.89	3.591660684E-4	-2.028846960E-3	1.240682595E-3
11.9	3.581973178E-4	-1.990784507E-3	-4.345047743E-4
11.91	-5.088026393E-4	-1.959815809E-3	-6.243797585E-4
11.92	-1.468802550E-3	-1.920784457E-3	-6.243797585E-4
11.93	-6.677088796E-4	-2.756815783E-3	2.606827520E-4
11.94	2.951973180E-4	-1.943784563E-3	3.556202531E-4
11.950000000000001	-4.788026437E-4	-1.828847095E-3	3.556202531E-4
11.96	2.951973180E-4	-1.808846961E-3	3.556202531E-4
11.97	1.246166036E-3	-1.770784508E-3	-5.294422574E-4
11.98	1.329166048E-3	-2.624878321E-3	2.606827520E-4
11.99	1.310134830E-3	-2.680784470E-3	3.556202531E-4
12.0	4.141035676E-4	-1.755722009E-3	-5.294422574E-4
12.01	-5.488026622E-4	-1.638847046E-3	2.606827520E-4
12.02	-6.418026599E-4	-2.485846953E-3	3.556202531E-4
12.030000000000001	2.342285739E-4	-1.673784462E-3	-5.294422574E-4
12.040000000000001	-2.281833784E-3	-1.558846995E-3	2.606827520E-4
12.05	-7.826463888E-4	-1.529815795E-3	-5.294422574E-4
12.06	2.751973264E-4	-1.499815761E-3	-6.243797585E-4
12.07	-5.078338887E-4	-1.469815803E-3	-6.243797585E-4
12.08	-5.837401654E-4	-1.448847005E-3	2.606827520E-4
12.09	1.161228522E-3	-1.428847030E-3	-5.294422574E-4
12.1	4.541035627E-4	-1.408847064E-3	2.606827520E-4
12.11	1.225197317E-3	-1.388847014E-3	3.556202531E-4
12.120000000000001	-4.428963854E-4	-1.377878273E-3	3.556202531E-4
12.13	-6.227713957E-4	-1.349815737E-3	-5.294422574E-4
12.14	-1.479771454E-3	-1.328847013E-3	-6.243797585E-4
12.15	-6.777089227E-4	-1.308847047E-3	2.606827520E-4
12.16	-5.637401573E-4	-1.279815763E-3	-1.414504768E-3
12.17	-5.618026561E-4	-1.267878274E-3	1.657452508E-4
12.18	-5.527714214E-4	-1.248847056E-3	3.556202531E-4
12.19	3.242285817E-4	5.051529081E-4	3.556202531E-4
12.200000000000001	4.091660766E-4	6.840591699E-4	-5.294422574E-4
12.21	3.991660703E-4	-1.929408122E-4	2.606827520E-4
12.22	3.981973197E-4	-2.778783048E-4	3.556202531E-4
12.23	-4.688026584E-4	5.810591893E-4	-5.294422574E-4
12.24	-1.428802613E-3	2.407090353E-3	2.606827520E-4
12.25	-6.367401401E-4	8.139341720E-4	3.556202531E-4
12.26	-1.408802643E-3	-1.128972037E-3	3.556202531E-4
12.27	-1.483740089E-3	4.351529338E-4	3.556202531E-4
12.280000000000001	-5.877088803E-4	6.140591957E-4	-5.294422574E-4
12.290000000000001	-4.918026353E-4	2.338059211E-3	-6.243797585E-4
12.3	3.842285564E-4	1.610934164E-3	2.606827520E-4
12.31	4.691660655E-4	1.485996621E-3	-5.294422574E-4
12.32	1.326166082E-3	2.341059173E-3	2.606827520E-4
12.33	5.241035670E-4	1.529965449E-3	1.240682595E-3
12.34	1.145838270E-3	2.143255905E-3	6.030283828E-4
12.35	-3.144703965E-4	2.347983836E-3	3.556202531E-4
12.36	-5.427713964E-4	1.448996650E-3	3.556202531E-4
12.370000000000001	-5.237401321E-4	2.183965335E-3	-1.414504768E-3
12.38	-5.308339076E-4	1.369965433E-3	1.657452508E-4
12.39	-1.389771341E-3	1.255027890E-3	-5.294422574E-4
12.4	-1.463740114E-3	3.589966815E-4	-6.243797585E-4
12.41	1.166291042E-3	1.130090436E-3	-6.243797585E-4
12.42	1.430134813E-3	1.214059201E-3	2.606827520E-4
12.43	5.341035710E-4	2.080090326E-3	3.556202531E-4
12.44	1.305197279E-3	2.145996608E-3	-5.294422574E-4
12.450000000000001	5.041035709E-4	3.639341808E-4	-6.243797585E-4
12.46	-4.678339078E-4	1.730904381E-4	1.145745094E-3
12.47	-5.527714214E-4	1.640591929E-4	-4.345047743E-4
12.48	-5.427713964E-4	-7.039095767E-4	2.606827520E-4
12.49	-1.408802643E-3	-7.878782601E-4	1.240682595E-3
12.5	-6.077088974E-4	-7.688470334E-4	-4.345047743E-4
12.51	3.642285859E-4	1.091216866E-4	2.606827520E-4
12.52	4.581973341E-4	-6.639095549E-4	3.556202531E-4
12.530000000000001	1.325197333E-3	-7.478782770E-4	3.556202531E-4
12.540000000000001	-3.338651344E-4	-7.378782895E-4	3.556202531E-4
12.55	1.221228518E-3	-1.594878221E-3	3.556202531E-4
12.56	5.231348096E-4	-7.928158029E-4	-1.414504768E-3
12.57	4.191660806E-4	-6.878782858E-4	-7.193172597E-4
12.58	4.091660766E-4	-1.553909532E-3	-6.243797585E-4
12.59	-4.588026732E-4	-1.619815828E-3	2.606827520E-4
12.6	-5.518026731E-4	-1.598846945E-3	3.556202531E-4
12.61	3.242285817E-4	-1.569815727E-3	3.556202531E-4
12.620000000000001	-4.578339226E-4	-1.548847012E-3	3.556202531E-4
12.63	-5.427713964E-4	-1.528847046E-3	3.556202531E-4
12.64	-5.418026435E-4	-2.384878188E-3	1.240682595E-3
12.65	3.251973346E-4	-1.564753295E-3	-4.345047743E-4
12.66	-4.488026458E-4	-1.448847005E-3	-6.243797585E-4
12.67	1.201228547E-3	-1.428847030E-3	2.606827520E-4
12.68	5.031348226E-4	-1.408847064E-3	3.556202531E-4
12.69	-4.678339078E-4	-1.397878248E-3	1.240682595E-3
12.700000000000001	3.142285777E-4	-1.378847022E-3	4.505577362E-4
12.71	-4.678339078E-4	-2.225847013E-3	-5.294422574E-4
12.72	-5.527714214E-4	-1.413784532E-3	-6.243797585E-4
12.73	-5.337401617E-4	-1.289815746E-3	-6.243797585E-4
12.74	3.442285733E-4	-1.277878257E-3	-6.243797585E-4
12.75	4.381973216E-4	-1.249815805E-3	2.606827520E-4
12.76	4.291660659E-4	-1.228847006E-3	3.556202531E-4
12.77	-4.388026628E-4	-1.208847031E-3	-5.294422574E-4
12.780000000000001	-5.047089145E-4	-1.179815746E-3	-1.509442269E-3
12.790000000000001	1.232197333E-3	-1.167878257E-3	1.657452508E-4
12.8	1.400134780E-3	-2.033909466E-3	3.556202531E-4
12.81	-3.538651515E-4	-1.223784482E-3	-5.294422574E-4
12.82	-5.237401321E-4	-1.108847015E-3	2.606827520E-4
12.83	-1.388802588E-3	-1.097878283E-3	-5.294422574E-4
12.84	-1.466762276E-3	-1.081869227E-3	1.125965708E-4
12.85	-2.296628558E-3	-1.068121860E-3	3.556202531E-4
12.86	-6.416776499E-4	-1.048847023E-3	-5.294422574E-4
12.870000000000001	1.300259811E-3	-1.037878292E-3	1.145745094E-3
12.88	1.461103519E-3	-1.027878309E-3	4.505577362E-4
12.89	5.641035621E-4	-1.008847007E-3	-5.294422574E-4
12.9	-4.078339166E-4	-9.978782669E-4	2.606827520E-4
12.91	-4.927713882E-4	-1.028158036E-4	1.240682595E-3
12.92	-4.918026353E-4	-8.829408030E-4	4.505577362E-4
12.93	-4.827714006E-4	-9.184705711E-5	3.556202531E-4
12.94	-1.348802651E-3	-5.940807381E-6	1.240682595E-3
12.950000000000001	-1.423740098E-3	-8.829408030E-4	4.505577362E-4
12.96	-1.403740123E-3	-9.184705711E-5	-5.294422574E-4
12.97	-1.374708922E-3	8.700904146E-4	-6.243797585E-4
12.98	-4.867401666E-4	9.450279423E-4	1.145745094E-3
12.99	-3.918026655E-4	9.340592109E-4	-4.345047743E-4
13.0	1.351228567E-3	9.150279091E-4	2.606827520E-4
13.01	1.511103528E-3	1.771059210E-3	-5.294422574E-4
13.02	6.141035703E-4	1.835996594E-3	2.606827520E-4
13.030000000000001	1.394228559E-3	1.815027861E-3	3.556202531E-4
13.040000000000001	-2.638651602E-4	2.671059171E-3	3.556202531E-4
13.05	4.332598118E-4	1.850934213E-3	3.556202531E-4
13.06	-3.478339254E-4	1.735027829E-3	3.556202531E-4
13.07	-4.327713970E-4	8.389966532E-4	3.556202531E-4
13.08	-4.227714094E-4	1.610090370E-3	3.556202531E-4
13.09	-1.288802660E-3	2.552027937E-3	-5.294422574E-4
13.1	3.702598075E-4	2.606965338E-3	2.606827520E-4
13.11	5.581973040E-4	2.566965388E-3	3.556202531E-4
13.120000000000001	5.491660693E-4	1.650934180E-3	-5.294422574E-4
13.13	5.301348096E-4	2.402027837E-3	-6.243797585E-4
13.14	5.191660737E-4	7.049029209E-4	-6.243797585E-4
13.15	1.385197324E-3	1.380090388E-3	-6.243797585E-4
13.16	-1.149896419E-3	2.322027955E-3	-6.243797585E-4
13.17	-1.413740115E-3	1.509965399E-3	2.606827520E-4
13.18	-1.384708905E-3	5.280279238E-4	3.556202531E-4
13.19	-4.877089150E-4	4.240591925E-4	-5.294422574E-4
13.200000000000001	4.751973336E-4	-4.439095550E-4	-6.243797585E-4
13.21	-2.897713889E-4	1.206121678E-3	-6.243797585E-4
13.22	4.761660865E-4	5.080279157E-4	-6.243797585E-4
13.23	-2.988026656E-4	4.040591799E-4	2.606827520E-4
13.24	1.342197333E-3	3.940591759E-4	3.556202531E-4
13.25	6.431348221E-4	-4.739095528E-4	3.556202531E-4
13.26	5.481973210E-4	-5.578782738E-4	-5.294422574E-4
13.27	5.301348096E-4	-5.478782862E-4	2.606827520E-4
13.280000000000001	-1.214833882E-3	3.200904192E-4	3.556202531E-4
13.290000000000001	-1.383740157E-3	-1.329940734E-3	3.556202531E-4
13.3	3.702598075E-4	-1.489815769E-3	-5.294422574E-4
13.31	-3.178339298E-4	-1.468847055E-3	2.606827520E-4
13.32	-1.278802677E-3	-1.457878240E-3	1.240682595E-3
13.33	-4.777088899E-4	-1.429815778E-3	-4.345047743E-4
13.34	-1.156882919E-3	-1.418835794E-3	9.580756893E-4
13.35	3.849727154E-4	-1.399107689E-3	4.633316387E-4
13.36	1.456166052E-3	-1.369815787E-3	3.556202531E-4
13.370000000000001	6.631348302E-4	-1.348846988E-3	3.556202531E-4
13.38	1.435197333E-3	-1.319815779E-3	-5.294422574E-4
13.39	-2.328964117E-4	-1.307878299E-3	2.606827520E-4
13.4	-4.127714264E-4	-1.288846997E-3	-5.294422574E-4
13.41	-1.287833912E-3	-1.277878257E-3	-6.243797585E-4
13.42	-4.967401496E-4	-1.267878274E-3	1.145745094E-3
13.43	-3.837401371E-4	-1.239815737E-3	-1.319567285E-3
13.44	4.761660865E-4	-1.209815779E-3	-1.604379770E-3
13.450000000000001	-2.988026656E-4	-1.188847065E-3	-7.193172597E-4
13.46	4.751973336E-4	-1.177878250E-3	2.606827520E-4
13.47	5.591660568E-4	-1.158847023E-3	-5.294422574E-4
13.48	5.581973040E-4	-2.014878249E-3	2.606827520E-4
13.49	1.425197261E-3	-1.203784516E-3	3.556202531E-4
13.5	-2.338651691E-4	-1.088847049E-3	-1.414504768E-3
13.51	-1.279771426E-3	-1.068846998E-3	-1.604379770E-3
13.52	-4.867401666E-4	-1.048847023E-3	1.050807593E-3
13.530000000000001	-3.918026655E-4	-1.037878292E-3	1.335620078E-3
13.540000000000001	4.842285683E-4	-1.027878309E-3	4.505577362E-4
13.55	-2.888026405E-4	-1.008847007E-3	-1.414504768E-3
13.56	4.851973212E-4	-9.888470322E-4	1.657452508E-4
13.57	5.691660819E-4	-9.778783009E-4	3.556202531E-4
13.58	5.501348222E-4	-9.588469991E-4	-5.294422574E-4
13.59	5.391660863E-4	-9.388470240E-4	-1.509442269E-3
13.6	-3.378338958E-4	-9.188470580E-4	-7.193172597E-4
13.61	4.351973130E-4	-9.078783266E-4	-6.243797585E-4
13.620000000000001	-3.388026487E-4	-8.888470248E-4	-1.509442269E-3
13.63	-4.318026441E-4	-8.869095191E-4	1.050807593E-3
13.64	4.351973130E-4	-8.778782845E-4	4.505577362E-4
13.65	-1.205802648E-3	-8.588470668E-4	-5.294422574E-4
13.66	-4.977088980E-4	-8.478782513E-4	-6.243797585E-4
13.67	-4.018026485E-4	2.912169779E-5	-6.243797585E-4
13.68	4.651973086E-4	1.230904415E-4	-1.509442269E-3
13.69	5.491660693E-4	1.230904415E-4	-1.604379770E-3
13.700000000000001	1.388103574E-3	9.810591640E-4	-2.489442281E-3
13.71	5.931348139E-4	1.880279373E-4	-1.699317271E-3
13.72	4.891660781E-4	8.405918969E-5	-7.193172597E-4
13.73	-3.788026694E-4	9.591216945E-4	2.606827520E-4
13.74	-4.627713926E-4	1.044059210E-3	-5.294422574E-4
13.75	4.051973174E-4	1.015996674E-3	-6.243797585E-4
13.76	-3.688026443E-4	1.004059185E-3	-6.243797585E-4
13.77	-4.527714050E-4	1.861059075E-3	-6.243797585E-4
13.780000000000001	-4.518026567E-4	1.049965417E-3	2.606827520E-4
13.790000000000001	4.242285771E-4	1.820090386E-3	1.240682595E-3
13.8	-3.578339084E-4	2.771059188E-3	4.505577362E-4
13.81	4.151973424E-4	1.950934229E-3	-5.294422574E-4
13.82	1.375197341E-3	1.835027845E-3	2.606827520E-4
13.83	-2.928964029E-4	3.558059010E-3	3.556202531E-4
13.84	2.827054388E-4	1.385857003E-3	-4.248151378E-4
13.85	4.781973002E-4	1.635692427E-3	2.459847411E-4
13.86	-3.978338916E-4	2.592027887E-3	-5.294422574E-4
13.870000000000001	-1.349771400E-3	8.949029286E-4	-6.243797585E-4
13.88	-2.299771374E-3	1.570090433E-3	2.606827520E-4
13.89	-6.126464072E-4	1.645027964E-3	-5.294422574E-4
13.9	-4.218026611E-4	7.489966800E-4	-6.243797585E-4
13.91	4.451973380E-4	1.511059106E-3	-6.243797585E-4
13.92	5.291660612E-4	1.585027880E-3	-6.243797585E-4
13.93	5.281973084E-4	1.555996679E-3	-6.243797585E-4
13.94	1.395197307E-3	1.535027880E-3	2.606827520E-4
13.950000000000001	-2.728963948E-4	1.505996671E-3	-5.294422574E-4
13.96	4.051973174E-4	1.466965403E-3	-1.509442269E-3
13.97	-1.235802601E-3	1.435996696E-3	-1.604379770E-3
13.98	3.302598333E-4	-3.280032929E-4	1.657452508E-4
13.99	-2.100865141E-3	3.500904148E-4	3.556202531E-4
14.0	2.643535750E-4	4.430904102E-4	3.556202531E-4
14.01	-3.278339128E-4	-4.239095469E-4	3.556202531E-4
14.02	-4.218026611E-4	-5.078783076E-4	-5.294422574E-4
14.030000000000001	-4.127714264E-4	-4.978782826E-4	-1.509442269E-3
14.040000000000001	1.331228513E-3	-5.059408064E-4	1.657452508E-4
14.05	1.491103552E-3	-1.364878240E-3	-5.294422574E-4
14.06	5.941035622E-4	-1.438847013E-3	-6.243797585E-4
14.07	4.891660781E-4	-1.418847047E-3	-6.243797585E-4
14.08	-1.263865138E-3	-1.407878315E-3	1.145745094E-3
14.09	-5.577088892E-4	-1.388847014E-3	-4.345047743E-4
14.1	4.142285941E-4	-1.368847039E-3	-6.243797585E-4
14.11	-1.234833849E-3	-1.348846988E-3	-6.243797585E-4
14.120000000000001	-1.403740123E-3	-1.328847013E-3	2.606827520E-4
14.13	-5.167401577E-4	-1.308847047E-3	-5.294422574E-4
14.14	4.451973380E-4	-1.279815763E-3	-1.509442269E-3
14.15	-3.288026612E-4	-1.258847039E-3	-7.193172597E-4
14.16	4.451973380E-4	-1.238846989E-3	-6.243797585E-4
14.17	1.405197295E-3	-1.218847014E-3	-6.243797585E-4
14.18	6.041035873E-4	-1.198847048E-3	2.606827520E-4
14.19	-3.588026568E-4	-1.178846998E-3	3.556202531E-4
14.200000000000001	-4.427714220E-4	-1.167878257E-3	3.556202531E-4
14.21	-4.418026737E-4	-2.015846997E-3	-5.294422574E-4
14.22	-1.308802631E-3	-1.203784516E-3	-6.243797585E-4
14.23	3.502598414E-4	-1.088847049E-3	2.606827520E-4
14.24	5.291660612E-4	-1.077878317E-3	3.556202531E-4
14.25	-3.478339254E-4	-1.058847015E-3	3.556202531E-4
14.26	4.342285601E-4	-1.056909510E-3	3.556202531E-4
14.27	5.191660737E-4	-1.914878232E-3	3.556202531E-4
14.280000000000001	5.091660907E-4	-1.103784499E-3	-5.294422574E-4
14.290000000000001	4.991660656E-4	-9.978782669E-4	2.606827520E-4
14.3	-3.778339210E-4	-9.788470492E-4	3.556202531E-4
14.31	-4.627713926E-4	-1.834878191E-3	3.556202531E-4
14.32	-4.618026397E-4	-1.032815768E-3	3.556202531E-4
14.33	-4.527714050E-4	-9.278782927E-4	3.556202531E-4
14.34	-1.229817200E-3	-9.188052395E-4	-4.386029756E-4
14.35	-5.390009466E-4	-8.990972291E-4	-6.243797585E-4
14.36	-4.318026441E-4	-8.878782675E-4	2.606827520E-4
14.370000000000001	-4.227714094E-4	-8.688470498E-4	3.556202531E-4
14.38	4.361660613E-4	-8.578783184E-4	-5.294422574E-4
14.39	5.191660737E-4	-8.478782513E-4	2.606827520E-4
14.4	5.091660907E-4	2.912169779E-5	1.240682595E-3
14.41	4.991660656E-4	1.140591859E-4	-4.345047743E-4
14.42	4.981973128E-4	1.221216909E-4	-6.243797585E-4
14.43	-3.688026443E-4	1.140591859E-4	-6.243797585E-4
14.44	-4.618026397E-4	-7.448782661E-4	2.606827520E-4
14.450000000000001	-4.527714050E-4	3.912169132E-5	3.556202531E-4
14.46	-4.337401453E-4	1.858059105E-3	-1.414504768E-3
14.47	-4.227714094E-4	2.729654306E-4	1.657452508E-4
14.48	4.451973380E-4	1.826121652E-3	1.240682595E-3
14.49	5.291660612E-4	1.985996693E-3	4.505577362E-4
14.5	-3.388026487E-4	1.955996576E-3	-5.294422574E-4
14.51	4.351973130E-4	1.049965417E-3	-6.243797585E-4
14.52	1.395197307E-3	1.811059151E-3	2.606827520E-4
14.530000000000001	-2.819276715E-4	1.885027929E-3	1.240682595E-3
14.540000000000001	-4.537401579E-4	1.846965325E-3	-4.345047743E-4
14.55	-4.518026567E-4	2.682996651E-3	-6.243797585E-4
14.56	-4.337401453E-4	9.849029199E-4	-6.243797585E-4
14.57	-4.318026441E-4	1.660090462E-3	2.606827520E-4
14.58	-4.227714094E-4	3.478059146E-3	3.556202531E-4
14.59	4.542285727E-4	2.741902939E-3	3.556202531E-4
14.6	5.301348096E-4	1.721902827E-3	-1.414504768E-3
14.61	1.395197307E-3	1.595996611E-3	1.657452508E-4
14.620000000000001	2.328103476E-3	2.442027938E-3	-5.294422574E-4
14.63	6.390410462E-4	1.629965381E-3	2.606827520E-4
14.64	4.391660699E-4	1.515027905E-3	-5.294422574E-4
14.65	-4.288026355E-4	1.485996621E-3	-1.509442269E-3
14.66	-5.127713962E-4	5.889966633E-4	1.657452508E-4
14.67	3.642285859E-4	-3.739095387E-4	3.556202531E-4
14.68	-1.284833857E-3	4.000904230E-4	-5.294422574E-4
14.69	-1.462771366E-3	4.840591837E-4	2.606827520E-4
14.700000000000001	2.812285735E-4	4.650279240E-4	-1.414504768E-3
14.71	4.591660825E-4	1.330090380E-3	-7.193172597E-4
14.72	4.491660574E-4	1.395996671E-3	-6.243797585E-4
14.73	1.315197262E-3	-3.680032760E-4	-6.243797585E-4
14.74	-3.528964031E-4	3.191216708E-4	-1.509442269E-3
14.75	3.342285693E-4	-4.539095425E-4	1.657452508E-4
14.76	4.191660806E-4	-1.413909495E-3	-5.294422574E-4
14.77	-4.578339226E-4	-6.128157873E-4	2.606827520E-4
14.780000000000001	-1.418802630E-3	-5.078783076E-4	-5.294422574E-4
14.790000000000001	-1.493740156E-3	-1.382940793E-3	2.606827520E-4
14.8	-1.473740106E-3	-1.458846988E-3	3.556202531E-4
14.81	-5.867401319E-4	-1.429815778E-3	-5.294422574E-4
14.82	-4.828330664E-4	-1.408970395E-3	2.546394946E-4
14.83	-4.727781239E-4	-1.388860426E-3	3.556202531E-4
14.84	2.499455090E-4	-1.371873113E-3	3.556202531E-4
14.85	4.794101363E-4	-1.349335155E-3	-5.055221672E-4
14.86	4.781973002E-4	-1.328847013E-3	2.606827520E-4
14.870000000000001	4.691660655E-4	-1.308847047E-3	-5.294422574E-4
14.88	-4.078339166E-4	-1.288846997E-3	2.606827520E-4
14.89	-4.927713882E-4	-1.268847022E-3	-1.414504768E-3
14.9	-1.358802634E-3	-1.239815737E-3	-7.193172597E-4
14.91	-5.577088892E-4	-1.218847014E-3	-6.243797585E-4
14.92	-4.527714050E-4	-1.198847048E-3	-6.243797585E-4
14.93	-4.427714220E-4	-2.045846955E-3	-6.243797585E-4
14.94	1.301228559E-3	-1.233784549E-3	-6.243797585E-4
14.950000000000001	1.452072285E-3	-1.127878241E-3	-1.509442269E-3
14.96	5.631348138E-4	-1.108847015E-3	-7.193172597E-4
14.97	-4.078339166E-4	-1.097878283E-3	2.606827520E-4
14.98	1.241228568E-3	-1.954878341E-3	3.556202531E-4
14.99	5.431348057E-4	-1.152815768E-3	3.556202531E-4
15.0	-4.278338872E-4	-1.914878232E-3	3.556202531E-4
15.01	3.542285608E-4	-1.112815818E-3	3.556202531E-4
15.02	4.481973046E-4	-9.988470243E-4	-5.294422574E-4
15.030000000000001	-1.312896398E-3	-9.878782839E-4	2.606827520E-4
15.040000000000001	-1.483740089E-3	-9.869095355E-4	1.240682595E-3
15.05	-5.877088803E-4	-9.688470662E-4	1.335620078E-3
15.06	3.751973218E-4	-9.578782507E-4	-4.345047743E-4
15.07	-3.988026399E-4	-9.478782587E-4	-6.243797585E-4
15.08	-4.827714006E-4	-9.288470410E-4	2.606827520E-4
15.09	-4.727714176E-4	-9.088470750E-4	-5.294422574E-4
15.1	3.951973298E-4	-8.888470248E-4	2.606827520E-4
15.11	4.791660530E-4	-8.778782845E-4	3.556202531E-4
15.120000000000001	-3.978338916E-4	-8.678783014E-4	1.240682595E-3
15.13	-1.358802634E-3	-8.578783184E-4	-4.345047743E-4
15.14	-1.424708846E-3	-8.569095701E-4	2.606827520E-4
15.15	-2.270740164E-3	-8.478782513E-4	3.556202531E-4
15.16	-5.826464161E-4	-8.288470246E-4	-5.294422574E-4
15.17	-3.918026655E-4	-8.178782933E-4	2.606827520E-4
15.18	-3.918026655E-4	-8.078783102E-4	1.240682595E-3
15.19	4.661660569E-4	-7.978783272E-4	-4.345047743E-4
15.200000000000001	-1.184833929E-3	7.912168645E-5	2.606827520E-4
15.21	-4.867401666E-4	1.730904381E-4	3.556202531E-4
15.22	4.842285683E-4	1.040090406E-3	3.556202531E-4
15.23	-2.978339172E-4	1.105996698E-3	-5.294422574E-4
15.24	-1.258802623E-3	2.809996663E-3	-1.509442269E-3
15.25	-1.333740149E-3	2.080934195E-3	-7.193172597E-4
15.26	-4.377089068E-4	2.832027852E-3	2.606827520E-4
15.27	-1.208802614E-3	2.010934127E-3	-5.294422574E-4
15.280000000000001	-4.077089066E-4	2.752996550E-3	-6.243797585E-4
15.290000000000001	1.431228529E-3	1.939965312E-3	2.606827520E-4
15.3	7.150722930E-4	2.682996651E-3	-5.294422574E-4
15.31	6.181972952E-4	1.851902961E-3	-6.243797585E-4
15.32	6.001348259E-4	2.611059105E-3	2.606827520E-4
15.33	5.981973292E-4	2.666965404E-3	3.556202531E-4
15.34	1.369080325E-3	2.638746778E-3	3.556202531E-4
15.35	6.574099370E-4	1.724487217E-3	-1.390323035E-3
15.36	-3.188026782E-4	1.585996628E-3	-7.193172597E-4
15.370000000000001	-4.118026781E-4	1.555996679E-3	2.606827520E-4
15.38	-4.027714014E-4	1.535027880E-3	3.556202531E-4
15.39	-1.268802606E-3	1.496965436E-3	-5.294422574E-4
15.4	-4.767401325E-4	2.360090400E-3	2.606827520E-4
15.41	4.942285558E-4	1.549965415E-3	3.556202531E-4
15.42	-2.878338921E-4	1.435027948E-3	3.556202531E-4
15.43	4.851973212E-4	5.389966642E-4	3.556202531E-4
15.44	-3.068651519E-4	2.186121601E-3	-5.294422574E-4
15.450000000000001	4.561660739E-4	6.029654078E-4	2.606827520E-4
15.46	-3.188026782E-4	4.040591799E-4	3.556202531E-4
15.47	-1.269771358E-3	3.940591759E-4	-5.294422574E-4
15.48	-1.352771366E-3	-4.648782761E-4	2.606827520E-4
15.49	-4.577089148E-4	-1.423909478E-3	-5.294422574E-4
15.5	-1.228802669E-3	-6.228157703E-4	-6.243797585E-4
15.51	-4.367401584E-4	-5.178782906E-4	1.145745094E-3
15.52	-1.217833849E-3	3.500904148E-4	1.335620078E-3
15.530000000000001	4.402598328E-4	-1.281878311E-3	-4.345047743E-4
15.540000000000001	-1.114833866E-3	-1.448847005E-3	2.606827520E-4
15.55	4.502598158E-4	-1.428847030E-3	3.556202531E-4
15.56	1.496166072E-3	-1.408847064E-3	-5.294422574E-4
15.57	-1.728964205E-4	-1.388847014E-3	2.606827520E-4
15.58	-3.618026699E-4	-1.359815804E-3	-5.294422574E-4
15.59	-1.228802669E-3	-1.347878240E-3	-6.243797585E-4
15.6	-4.277089027E-4	-1.310784544E-3	-1.509442269E-3
15.610000000000001	-3.227714163E-4	-1.288846997E-3	-7.193172597E-4
15.620000000000001	-3.218026680E-4	-1.277878257E-3	2.606827520E-4
15.63	5.451973101E-4	-1.258847039E-3	3.556202531E-4
15.64	2.372197348E-3	-1.247878308E-3	-5.294422574E-4
15.65	7.790410547E-4	-1.228847006E-3	-6.243797585E-4
15.66	5.791660649E-4	-1.208847031E-3	-6.243797585E-4
15.67	5.691660819E-4	-1.188847065E-3	-6.243797585E-4
15.68	-2.988026656E-4	-1.159815780E-3	-6.243797585E-4
15.69	4.751973336E-4	-2.023909483E-3	1.145745094E-3
15.700000000000001	5.591660568E-4	-1.222815733E-3	4.505577362E-4
15.71	-3.178339298E-4	-1.108847015E-3	3.556202531E-4
15.72	-1.269771358E-3	-1.088847049E-3	3.556202531E-4
15.73	-1.343740132E-3	-1.068846998E-3	-5.294422574E-4
15.74	-4.477088898E-4	-1.048847023E-3	-6.243797585E-4
15.75	1.391228509E-3	-1.037878292E-3	2.606827520E-4
15.76	1.551103544E-3	-1.027878309E-3	-5.294422574E-4
15.77	6.541035535E-4	-9.998157726E-4	-1.509442269E-3
15.780000000000001	1.425197261E-3	-9.788470492E-4	1.657452508E-4
15.790000000000001	6.241035533E-4	-9.678783178E-4	-5.294422574E-4
15.8	5.191660737E-4	-9.488470161E-4	-1.509442269E-3
15.81	-1.224833865E-3	-9.288470410E-4	1.657452508E-4
15.82	-1.393740140E-3	-9.178783096E-4	-5.294422574E-4
15.83	-1.373740174E-3	-9.078783266E-4	2.606827520E-4
15.84	-6.327867916E-4	-8.994447148E-4	-3.759308038E-4
15.85	4.514366994E-4	-8.882299400E-4	2.262187817E-4
15.860000000000001	5.691744793E-4	-8.778866819E-4	3.556202531E-4
15.870000000000001	-1.174833857E-3	-8.678783014E-4	1.240682595E-3
15.88	3.902598246E-4	-8.578783184E-4	4.505577362E-4
15.89	1.436166081E-3	-8.478782513E-4	3.556202531E-4
15.9	6.341035874E-4	2.912169779E-5	-5.294422574E-4
15.91	-3.378338958E-4	1.230904415E-4	-6.243797585E-4
15.92	-4.227714094E-4	9.900903986E-4	-6.243797585E-4
15.93	4.451973380E-4	1.889966857E-4	-6.243797585E-4
15.94	-1.195802660E-3	1.021216905E-4	-6.243797585E-4
15.950000000000001	-4.967401496E-4	1.030904406E-4	-6.243797585E-4
15.96	-1.268802606E-3	1.030904406E-4	2.606827520E-4
15.97	3.902598246E-4	9.700904292E-4	-1.414504768E-3
15.98	-2.978339172E-4	1.689966881E-4	-7.193172597E-4
15.99	1.333166014E-3	9.400903910E-4	-6.243797585E-4
16.0	1.491103552E-3	1.015027916E-3	-1.509442269E-3
16.01	5.941035622E-4	1.862027823E-3	-1.604379770E-3
16.02	4.891660781E-4	1.935027844E-3	1.657452508E-4
16.03	1.355197287E-3	1.905996643E-3	3.556202531E-4
16.04	5.541035791E-4	1.885027929E-3	3.556202531E-4
16.05	-1.284833857E-3	1.865027963E-3	3.556202531E-4
16.06	-5.777088973E-4	2.702996635E-3	-5.294422574E-4
16.07	3.851973048E-4	1.880934162E-3	-6.243797585E-4
16.080000000000002	-3.888026569E-4	2.632027819E-3	2.606827520E-4
16.09	-4.818026523E-4	2.686965370E-3	3.556202531E-4
16.1	-1.339771417E-3	1.770934162E-3	-5.294422574E-4
16.11	3.292910760E-4	1.655027947E-3	2.606827520E-4
16.12	5.001348140E-4	1.616965343E-3	-1.414504768E-3
16.13	-1.244833920E-3	1.585996628E-3	-7.193172597E-4
16.14	3.112285646E-4	1.565027914E-3	-6.243797585E-4
16.15	4.891660781E-4	1.545027863E-3	2.606827520E-4
16.16	-3.788026694E-4	1.525027888E-3	3.556202531E-4
16.17	-4.627713926E-4	1.505027922E-3	-5.294422574E-4
16.18	-4.527714050E-4	1.485027872E-3	-6.243797585E-4
16.19	-1.318802614E-3	5.889966633E-4	2.606827520E-4
16.2	-5.267401407E-4	1.351059183E-3	-5.294422574E-4
16.21	4.351973130E-4	5.489966892E-4	2.606827520E-4
16.22	1.386166073E-3	4.530904398E-4	-5.294422574E-4
16.23	5.841035792E-4	-4.229407940E-4	-6.243797585E-4
16.240000000000002	-3.788026694E-4	3.591216915E-4	-6.243797585E-4
16.25	3.951973298E-4	-4.229407940E-4	2.606827520E-4
16.26	4.791660530E-4	-1.374878307E-3	3.556202531E-4
16.27	4.781973002E-4	-5.818470478E-4	3.556202531E-4
16.28	-1.255802656E-3	-1.344878269E-3	-5.294422574E-4
16.29	-5.477089062E-4	-1.427878281E-3	2.606827520E-4
16.3	-1.309771379E-3	-1.408847064E-3	-1.414504768E-3
16.31	-5.077089230E-4	-1.379815779E-3	1.657452508E-4
16.32	-4.118026781E-4	-1.367878290E-3	1.240682595E-3
16.330000000000002	-4.118026781E-4	-1.348846988E-3	4.505577362E-4
16.34	3.750379337E-4	-1.322320755E-3	-1.250846017E-3
16.35	-3.082536176E-4	-1.299066836E-3	1.442075853E-4
16.36	1.322197278E-3	-1.287878249E-3	3.556202531E-4
16.37	6.141035703E-4	-1.259815788E-3	-1.414504768E-3
16.38	-1.224833865E-3	-1.238846989E-3	-7.193172597E-4
16.39	-5.177089061E-4	-1.227878249E-3	-6.243797585E-4
16.4	-4.127714264E-4	-1.208847031E-3	2.606827520E-4
16.41	-4.027714014E-4	-1.179815746E-3	-5.294422574E-4
16.42	-1.277833924E-3	-1.167878257E-3	2.606827520E-4
16.43	-4.777088899E-4	-1.148847040E-3	-1.414504768E-3
16.44	4.851973212E-4	-1.119815755E-3	-7.193172597E-4
16.45	5.781973166E-4	-1.107878266E-3	2.606827520E-4
16.46	5.691660819E-4	-1.088847049E-3	-1.414504768E-3
16.47	-2.988026656E-4	-1.068846998E-3	-7.193172597E-4
16.48	4.751973336E-4	-1.057878258E-3	-6.243797585E-4
16.490000000000002	1.435197333E-3	-1.038847040E-3	-6.243797585E-4
16.5	-2.328964117E-4	-1.027878309E-3	-6.243797585E-4
16.51	4.542285727E-4	-1.008847007E-3	-6.243797585E-4
16.52	-3.188026782E-4	-9.888470322E-4	-1.509442269E-3
16.53	-3.937401667E-4	-9.688470662E-4	-7.193172597E-4
16.54	4.661660569E-4	-9.578782507E-4	2.606827520E-4
16.55	-3.178339298E-4	-9.478782587E-4	-5.294422574E-4
16.56	-1.278802677E-3	-9.378782757E-4	-6.243797585E-4
16.57	-4.777088899E-4	-9.188470580E-4	-6.243797585E-4
16.580000000000002	-3.818026359E-4	-9.078783266E-4	2.606827520E-4
16.59	4.761660865E-4	-8.888470248E-4	-5.294422574E-4
16.6	5.681973336E-4	-8.778782845E-4	2.606827520E-4
16.61	-2.988026656E-4	-8.678783014E-4	3.556202531E-4
16.62	4.751973336E-4	-8.578783184E-4	3.556202531E-4
16.63	-2.986671746E-4	-8.478796627E-4	-5.293039438E-4
16.64	-3.918026655E-4	2.910700818E-5	2.606679109E-4
16.65	-1.249771388E-3	-7.348782809E-4	-1.414504768E-3
16.66	4.012285559E-4	-8.178782933E-4	-1.604379770E-3
16.67	-2.788026575E-4	6.815294457E-5	1.657452508E-4
16.68	2.247259730E-3	1.030090422E-3	3.556202531E-4
16.69	7.490410456E-4	2.380279402E-4	-5.294422574E-4
16.7	5.491660693E-4	1.019121687E-3	-6.243797585E-4
16.71	5.391660863E-4	1.095027883E-3	-6.243797585E-4
16.72	-3.288026612E-4	1.075027908E-3	-6.243797585E-4
16.73	-4.127714264E-4	1.940090368E-3	2.606827520E-4
16.740000000000002	-4.118026781E-4	2.005996659E-3	-5.294422574E-4
16.75	-4.027714014E-4	1.957934073E-3	-1.509442269E-3
16.76	-1.259771371E-3	1.058996652E-3	-7.193172597E-4
16.77	-1.333740149E-3	1.802996665E-3	-1.509442269E-3
16.78	4.202598156E-4	1.865996711E-3	-7.193172597E-4
16.79	-2.678339216E-4	1.845027828E-3	2.606827520E-4
16.8	5.051973293E-4	2.682996651E-3	-5.294422574E-4
16.81	-2.688026700E-4	2.736965303E-3	-6.243797585E-4
16.82	-3.618026699E-4	1.820934077E-3	2.606827520E-4
16.830000000000002	5.142285639E-4	1.705027862E-3	3.556202531E-4
16.84	6.006791147E-4	1.688053970E-3	3.556202531E-4
16.85	-1.097725972E-3	1.656728942E-3	3.556202531E-4
16.86	4.202598156E-4	1.635027981E-3	3.556202531E-4
16.87	-2.497714102E-4	1.596965377E-3	-5.294422574E-4
16.88	-1.217833849E-3	1.575027897E-3	2.606827520E-4
16.89	-4.267401453E-4	1.545996612E-3	3.556202531E-4
16.9	-3.408339067E-4	1.525027888E-3	3.556202531E-4
16.91	5.342285765E-4	2.390090349E-3	3.556202531E-4
16.92	6.101348134E-4	1.579965364E-3	3.556202531E-4
16.93	5.991660775E-4	1.455996662E-3	-5.294422574E-4
16.94	-2.778339046E-4	5.589966722E-4	-6.243797585E-4
16.95	-3.627714182E-4	4.540591881E-4	-6.243797585E-4
16.96	-3.527713932E-4	4.440591630E-4	-6.243797585E-4
16.97	-3.518026403E-4	4.430904102E-4	2.606827520E-4
16.98	-3.427714056E-4	-4.239095469E-4	-1.414504768E-3
16.990000000000002	-3.418026573E-4	-5.169095423E-4	1.657452508E-4
17.0	-2.084833890E-3	3.500904148E-4	-5.294422574E-4
17.01	3.653223397E-4	4.340591755E-4	-1.509442269E-3
17.02	-1.112896365E-3	-1.309940764E-3	1.657452508E-4
17.03	-4.167401623E-4	-1.460784485E-3	-1.414504768E-3
17.04	-3.218026680E-4	-1.420784544E-3	-1.604379770E-3
17.05	-3.127714123E-4	-1.398846997E-3	-7.193172597E-4
17.06	5.551973374E-4	-1.378847022E-3	-6.243797585E-4
17.07	6.391660606E-4	-1.358847056E-3	2.606827520E-4
17.080000000000002	-2.378339050E-4	-1.347878240E-3	1.240682595E-3
17.09	-3.227714163E-4	-1.319815779E-3	-1.319567285E-3
17.1	-1.179771411E-3	-1.289815746E-3	-7.193172597E-4
17.11	-3.777089156E-4	-1.268847022E-3	-6.243797585E-4
17.12	-1.139771388E-3	-1.248847056E-3	-1.509442269E-3
17.13	-3.467401671E-4	-1.219815771E-3	-7.193172597E-4
17.14	6.151973287E-4	-1.198847048E-3	-6.243797585E-4
17.150000000000002	6.991660518E-4	-1.187878317E-3	-6.243797585E-4
17.16	1.529072275E-3	-1.150784546E-3	-2.394504780E-3
17.17	-1.428964084E-4	-1.128846990E-3	7.080774970E-5
17.18	5.351973271E-4	-1.117878249E-3	3.556202531E-4
17.19	-2.478339090E-4	-1.098847032E-3	-5.294422574E-4
17.2	5.251972998E-4	-1.078847066E-3	-6.243797585E-4
17.21	-2.668651733E-4	-1.058847015E-3	2.606827520E-4
17.22	-3.527713932E-4	-1.038847040E-3	-5.294422574E-4
17.23	-3.427714056E-4	-1.018847074E-3	-1.509442269E-3
17.240000000000002	-3.327714016E-4	-9.988470243E-4	-7.193172597E-4
17.25	-3.318026510E-4	-9.788470492E-4	-6.243797585E-4
17.26	-3.318026510E-4	-1.834878191E-3	-6.243797585E-4
17.27	1.411228561E-3	-1.041847002E-3	2.606827520E-4
17.28	6.950723270E-4	-9.288470410E-4	-1.414504768E-3
17.29	-2.778339046E-4	-9.178783096E-4	1.657452508E-4
17.3	-1.247833887E-3	-9.078783266E-4	3.556202531E-4
17.31	1.277259790E-3	-8.978782595E-4	-5.294422574E-4
17.32	-1.078927612E-3	-8.788470328E-4	-6.243797585E-4
17.330000000000002	-1.352771366E-3	-8.678783014E-4	2.606827520E-4
17.34	-5.643588123E-4	-8.587915894E-4	-4.399415541E-4
17.35	-3.728942003E-4	-8.390926160E-4	2.486484208E-4
17.36	-3.718026529E-4	-8.278782763E-4	-5.294422574E-4
17.37	4.951973042E-4	-8.178782933E-4	-6.243797585E-4
17.38	-1.154833891E-3	-7.988470756E-4	-1.509442269E-3
17.39	-4.386776551E-4	-7.878782601E-4	1.657452508E-4
17.400000000000002	5.161660651E-4	8.009044383E-5	3.556202531E-4
17.41	-2.588026449E-4	1.730904381E-4	-5.294422574E-4
17.42	-3.608339170E-4	-6.939095085E-4	-6.243797585E-4
17.43	4.961660525E-4	8.009044383E-5	-6.243797585E-4
17.44	-1.145802657E-3	1.640591929E-4	-1.509442269E-3
17.45	-4.467401414E-4	1.888059228E-3	-1.604379770E-3
17.46	5.151973168E-4	2.045996610E-3	-7.193172597E-4
17.47	-2.010865112E-3	1.139965451E-3	-6.243797585E-4
17.48	3.453223316E-4	1.025027909E-3	-6.243797585E-4
17.490000000000002	6.191660480E-4	1.014059168E-3	2.606827520E-4
17.5	6.091660605E-4	1.862027823E-3	-5.294422574E-4
17.51	-2.678339216E-4	1.925996609E-3	2.606827520E-4
17.52	-3.618026699E-4	2.772027936E-3	-5.294422574E-4
17.53	5.142285639E-4	1.941902826E-3	-6.243797585E-4
17.54	5.991660775E-4	2.701059120E-3	2.606827520E-4
17.55	-2.688026700E-4	2.756965438E-3	3.556202531E-4
17.56	-3.618026699E-4	1.849965464E-3	-5.294422574E-4
17.57	5.051973293E-4	2.602027870E-3	2.606827520E-4
17.580000000000002	-2.778339046E-4	1.789965380E-3	3.556202531E-4
17.59	-3.718026529E-4	1.675027913E-3	3.556202531E-4
17.6	4.951973042E-4	1.636965478E-3	-1.414504768E-3
17.61	5.791660649E-4	1.605996612E-3	-7.193172597E-4
17.62	5.601348052E-4	1.575996645E-3	-6.243797585E-4
17.63	5.491660693E-4	2.422027803E-3	-6.243797585E-4
17.64	1.406166043E-3	2.476965354E-3	-6.243797585E-4
17.650000000000002	5.950723106E-4	2.436965422E-3	-6.243797585E-4
17.66	-3.688026443E-4	6.539341734E-4	-6.243797585E-4
17.67	-2.186771403E-3	4.540591881E-4	-1.509442269E-3
17.68	-1.441583887E-3	-4.048782827E-4	-2.489442281E-3
17.69	-1.332771400E-3	3.700904274E-4	-8.142547608E-4
17.7	-1.313740098E-3	-4.039095343E-4	-1.509442269E-3
17.71	-1.284708889E-3	-4.878782950E-4	-1.604379770E-3
17.72	-3.877088986E-4	-4.778783120E-4	-1.604379770E-3
17.73	5.751973080E-4	3.900904355E-4	1.657452508E-4
17.740000000000002	6.591660687E-4	-3.839095638E-4	-5.294422574E-4
17.75	6.491660857E-4	-4.769095637E-4	2.606827520E-4
17.76	1.506166060E-3	-1.334878286E-3	-5.294422574E-4
17.77	7.131347963E-4	-1.417878298E-3	2.606827520E-4
17.78	6.001348259E-4	-1.398846997E-3	3.556202531E-4
17.79	-2.778339046E-4	-1.369815787E-3	-1.414504768E-3
17.8	-3.718026529E-4	-1.357878307E-3	1.657452508E-4
17.81	4.951973042E-4	-1.338847005E-3	-5.294422574E-4
17.82	-1.163865126E-3	-1.318847030E-3	1.145745094E-3
17.830000000000002	-4.667401495E-4	-1.307878299E-3	-4.345047743E-4
17.84	1.186649376E-3	-1.290759740E-3	1.669586135E-4
17.85	-1.864180408E-4	-1.269107324E-3	-5.166874496E-4
17.86	-3.927714138E-4	-1.257878291E-3	2.606827520E-4
17.87	4.661660569E-4	-1.238846989E-3	-5.294422574E-4
17.88	-1.184833929E-3	-1.227878249E-3	-6.243797585E-4
17.89	-4.777088899E-4	-1.217878266E-3	2.606827520E-4
17.900000000000002	1.370259790E-3	-1.207878283E-3	1.240682595E-3
17.91	6.641035785E-4	-1.188847065E-3	-4.345047743E-4
17.92	-3.078339002E-4	-1.168847015E-3	-6.243797585E-4
17.93	-3.927714138E-4	-1.157878274E-3	-6.243797585E-4
17.94	-3.827713888E-4	-1.129815738E-3	-1.509442269E-3
17.95	-3.818026359E-4	-1.108847015E-3	-1.604379770E-3
17.96	4.851973212E-4	-1.088847049E-3	-7.193172597E-4
17.97	-2.888026405E-4	-1.059815764E-3	-1.509442269E-3
17.98	1.361228555E-3	-1.038847040E-3	-7.193172597E-4
17.990000000000002	6.541035535E-4	-1.027878309E-3	-6.243797585E-4
18.0	-3.178339298E-4	-1.017878326E-3	2.606827520E-4
18.01	4.551973211E-4	-1.007878259E-3	3.556202531E-4
18.02	5.301348096E-4	-9.888470322E-4	-1.414504768E-3
18.03	-1.223865117E-3	-1.853909577E-3	-7.193172597E-4
18.04	-5.177089061E-4	-1.043784517E-3	-6.243797585E-4
18.05	-4.127714264E-4	-9.288470410E-4	-1.509442269E-3
18.06	-4.027714014E-4	-9.178783096E-4	-7.193172597E-4
18.07	-4.018026485E-4	-9.169095613E-4	2.606827520E-4
18.080000000000002	1.341228584E-3	-9.078783266E-4	-5.294422574E-4
18.09	6.341035874E-4	-8.978782595E-4	-6.243797585E-4
18.1	5.291660612E-4	-8.788470328E-4	-6.243797585E-4
18.11	-1.205802648E-3	-8.678783014E-4	-6.243797585E-4
18.12	-5.067401747E-4	-8.578783184E-4	-6.243797585E-4
18.13	-4.027714014E-4	-8.478782513E-4	1.145745094E-3
18.14	1.341228584E-3	-8.469094939E-4	4.505577362E-4
18.150000000000002	6.341035874E-4	3.815294297E-5	-5.294422574E-4
18.16	5.291660612E-4	1.000090383E-3	-6.243797585E-4
18.17	-1.214833882E-3	2.080279296E-4	-6.243797585E-4
18.18	-5.077089230E-4	1.130904352E-4	-6.243797585E-4
18.19	4.551973211E-4	9.800904133E-4	-6.243797585E-4
18.2	-3.188026782E-4	1.055027942E-3	-1.509442269E-3
18.21	-4.118026781E-4	1.035027892E-3	1.657452508E-4
18.22	4.551973211E-4	1.024059151E-3	3.556202531E-4
18.23	-3.188026782E-4	1.005027933E-3	-5.294422574E-4
18.240000000000002	-1.278802677E-3	9.850278833E-4	-6.243797585E-4
18.25	-4.686776552E-4	1.841059100E-3	-6.243797585E-4
18.26	4.951973042E-4	1.924059112E-3	1.145745094E-3
18.27	-2.878338921E-4	2.772027936E-3	4.505577362E-4
18.28	4.761660865E-4	2.826965337E-3	-5.294422574E-4
18.29	-2.988026656E-4	1.910934111E-3	2.606827520E-4
18.3	-3.918026655E-4	1.785996661E-3	-5.294422574E-4
18.31	-3.918026655E-4	2.632027819E-3	-6.243797585E-4
18.32	4.661660569E-4	1.810934094E-3	-6.243797585E-4
18.330000000000002	5.401348347E-4	2.562027920E-3	2.606827520E-4
18.34	5.302347855E-4	2.605315187E-3	-1.205035434E-3
18.35	-3.243852095E-4	2.557566131E-3	-7.340350631E-4
18.36	-1.298802643E-3	1.640934113E-3	-6.243797585E-4
18.37	-5.067401747E-4	1.525027888E-3	-6.243797585E-4
18.38	-4.027714014E-4	3.239027921E-3	-6.243797585E-4
18.39	-4.108339252E-4	1.643934168E-3	2.606827520E-4
18.400000000000002	-4.027714014E-4	1.416965395E-3	-1.414504768E-3
18.41	-3.927714138E-4	5.280279238E-4	-1.604379770E-3
18.42	-3.918026655E-4	-4.339095299E-4	-7.193172597E-4
18.43	-2.134833814E-3	3.400904318E-4	-6.243797585E-4
18.44	-5.516776586E-4	4.240591925E-4	-6.243797585E-4
18.45	-3.527713932E-4	4.140591674E-4	-6.243797585E-4
18.46	5.061660821E-4	-4.539095425E-4	2.606827520E-4
18.47	-1.153865138E-3	-5.469095379E-4	1.240682595E-3
18.48	-1.314708847E-3	-5.378783032E-4	-4.345047743E-4
18.490000000000002	-4.177089107E-4	-1.403909512E-3	-6.243797585E-4
18.5	-3.218026680E-4	-6.028158042E-4	-6.243797585E-4
18.51	-3.218026680E-4	-4.978782826E-4	2.606827520E-4
18.52	-3.127714123E-4	-4.878782950E-4	-5.294422574E-4
18.53	-3.118026617E-4	-1.353909504E-3	2.606827520E-4
18.54	-3.118026617E-4	-1.428847030E-3	3.556202531E-4
18.55	5.551973374E-4	-1.408847064E-3	3.556202531E-4
18.56	6.391660606E-4	-1.388847014E-3	3.556202531E-4
18.57	6.291660731E-4	-1.368847039E-3	-5.294422574E-4
18.580000000000002	-2.478339090E-4	-1.348846988E-3	-6.243797585E-4
18.59	-3.327714016E-4	-1.328847013E-3	-6.243797585E-4
18.6	-3.408339067E-4	-1.299815813E-3	2.606827520E-4
18.61	-1.208802614E-3	-1.278847014E-3	3.556202531E-4
18.62	1.317259815E-3	-1.258847039E-3	-5.294422574E-4
18.63	-1.047958906E-3	-1.247878308E-3	2.606827520E-4
18.64	4.202598156E-4	-1.228847006E-3	-5.294422574E-4
18.650000000000002	5.991660775E-4	-1.208847031E-3	-6.243797585E-4
18.66	1.456166052E-3	-1.179815746E-3	-6.243797585E-4
18.67	6.541035535E-4	-1.158847023E-3	-6.243797585E-4
18.68	5.401348347E-4	-1.129815738E-3	-1.509442269E-3
18.69	-3.197714265E-4	-1.117878249E-3	-7.193172597E-4
18.7	-4.027714014E-4	-1.107878266E-3	-6.243797585E-4
18.71	-1.268802606E-3	-1.955847090E-3	-6.243797585E-4
18.72	3.902598246E-4	-2.019815725E-3	-6.243797585E-4
18.73	-1.155802640E-3	-1.989815758E-3	-6.243797585E-4
18.740000000000002	-4.567401665E-4	-1.092815768E-3	-6.243797585E-4
18.75	5.051973293E-4	-9.878782839E-4	2.606827520E-4
18.76	5.891660524E-4	-9.688470662E-4	1.240682595E-3
18.77	-2.878338921E-4	-9.488470161E-4	-4.345047743E-4
18.78	4.851973212E-4	-9.288470410E-4	-1.509442269E-3
18.79	5.691660819E-4	-9.088470750E-4	-7.193172597E-4
18.8	-2.988026656E-4	-8.888470248E-4	-1.509442269E-3
18.81	-3.827756206E-4	-8.778825163E-4	-1.604379770E-3
18.82	-3.818026359E-4	-8.678787558E-4	-7.193617872E-4
18.830000000000002	4.851973212E-4	-8.398157650E-4	-1.509442269E-3
18.84	-1.438325460E-4	-8.293883789E-4	-1.604379770E-3
18.85	4.618336787E-4	-8.181216641E-4	-7.431676462E-4
18.86	-2.978339172E-4	-8.078783102E-4	-6.243797585E-4
18.87	-4.008339001E-4	-7.978783272E-4	2.606827520E-4
18.88	-4.018026485E-4	7.912168645E-5	-5.294422574E-4
18.89	4.651973086E-4	1.640591929E-4	-6.243797585E-4
18.900000000000002	-3.178339298E-4	-7.039095767E-4	2.606827520E-4
18.91	-2.154833785E-3	1.813121695E-3	-5.294422574E-4
18.92	-5.716776246E-4	3.139341921E-4	-6.243797585E-4
18.93	4.942285558E-4	9.991216333E-4	2.606827520E-4
18.94	-1.163865126E-3	1.951059099E-3	3.556202531E-4
18.95	4.002598076E-4	2.639341802E-4	3.556202531E-4
18.96	-1.163865126E-3	1.816121667E-3	3.556202531E-4
18.97	-4.577089148E-4	1.099965435E-3	-1.414504768E-3
18.98	5.142285639E-4	9.850278833E-4	1.657452508E-4
18.990000000000002	1.475197269E-3	9.740591430E-4	1.240682595E-3
19.0	-1.838651609E-4	1.822027882E-3	-1.319567285E-3
19.01	-3.627714182E-4	1.018996636E-3	-7.193172597E-4
19.02	5.051973293E-4	1.772027958E-3	-6.243797585E-4
19.03	-1.144833904E-3	1.845027828E-3	2.606827520E-4
19.04	-4.377089068E-4	1.815996610E-3	3.556202531E-4
19.05	-3.327714016E-4	1.776965426E-3	-1.414504768E-3
19.06	-1.198802629E-3	1.736965326E-3	-7.193172597E-4
19.07	-4.067401583E-4	2.572996651E-3	-1.509442269E-3
19.080000000000002	-3.027714060E-4	1.741902962E-3	-7.193172597E-4
19.09	-1.168802676E-3	1.625027830E-3	2.606827520E-4
19.1	-3.677089115E-4	1.605027846E-3	3.556202531E-4
19.11	-2.718026598E-4	1.585027880E-3	3.556202531E-4
19.12	5.951973183E-4	2.459121659E-3	1.240682595E-3
19.13	6.701348046E-4	1.649965432E-3	-4.345047743E-4
19.14	6.591660687E-4	-2.080033105E-4	-6.243797585E-4
19.150000000000002	1.516166043E-3	1.364184184E-3	2.606827520E-4
19.16	-1.528964124E-4	6.589966886E-4	3.556202531E-4
19.17	-3.418026573E-4	1.430090396E-3	3.556202531E-4
19.18	-3.237401669E-4	-2.289720339E-4	-5.294422574E-4
19.19	-1.197833881E-3	-4.078782912E-4	1.145745094E-3
19.2	-4.067401583E-4	4.600904142E-4	4.505577362E-4
19.21	-3.027714060E-4	5.440591749E-4	-1.414504768E-3
19.22	-1.177833910E-3	-3.419720419E-4	-7.193172597E-4
19.23	4.802598069E-4	-4.188470271E-4	-1.509442269E-3
19.240000000000002	6.591660687E-4	-4.169095259E-4	1.657452508E-4
19.25	6.581973204E-4	-1.274878290E-3	-5.294422574E-4
19.26	-2.268651691E-4	-1.339815754E-3	-6.243797585E-4
19.27	5.451973101E-4	-1.309815796E-3	-1.509442269E-3
19.28	-2.378339050E-4	-1.297878316E-3	-7.193172597E-4
19.29	-3.318026510E-4	-1.278847014E-3	2.606827520E-4
19.3	-3.227714163E-4	-1.258847039E-3	-5.294422574E-4
19.31	-3.218026680E-4	-1.247878308E-3	2.606827520E-4
19.32	5.542285868E-4	-1.228847006E-3	-5.294422574E-4
19.330000000000002	6.301348260E-4	-1.208847031E-3	-6.243797585E-4
19.34	-9.682526210E-5	-1.199435087E-3	1.081173102E-4
19.35	-3.330262555E-4	-1.179356707E-3	-5.044665859E-4
19.36	-3.318026510E-4	-1.158847023E-3	2.606827520E-4
19.37	1.402197326E-3	-1.147878291E-3	-5.294422574E-4
19.38	6.941035786E-4	-1.119815755E-3	-1.509442269E-3
19.39	5.891660524E-4	-1.107878266E-3	1.657452508E-4
19.400000000000002	5.791660649E-4	-1.088847049E-3	-5.294422574E-4
19.41	5.781973166E-4	-1.077878317E-3	2.606827520E-4
19.42	-3.068651519E-4	-1.058847015E-3	3.556202531E-4
19.43	-3.927714138E-4	-1.047878275E-3	3.556202531E-4
19.44	4.751973336E-4	-1.028847057E-3	-5.294422574E-4
19.45	5.591660568E-4	-1.017878326E-3	-6.243797585E-4
19.46	5.491660693E-4	-9.988470243E-4	2.606827520E-4
19.47	5.391660863E-4	-9.788470492E-4	-5.294422574E-4
19.48	5.291660612E-4	-9.678783178E-4	-6.243797585E-4
19.490000000000002	5.191660737E-4	-9.488470161E-4	-6.243797585E-4
19.5	5.091660907E-4	-9.288470410E-4	-6.243797585E-4
19.51	4.991660656E-4	-9.178783096E-4	-6.243797585E-4
19.52	-3.688026443E-4	-9.078783266E-4	2.606827520E-4
19.53	4.051973174E-4	-8.888470248E-4	-5.294422574E-4
19.54	1.374228589E-3	-8.778782845E-4	2.606827520E-4
19.55	5.741035542E-4	-8.678783014E-4	-5.294422574E-4
19.56	-3.797714222E-4	-8.488469997E-4	-1.509442269E-3
19.57	4.042285645E-4	-8.469094939E-4	1.657452508E-4
19.580000000000002	1.356166035E-3	-8.288470246E-4	-1.414504768E-3
19.59	5.450723024E-4	-8.088470586E-4	-1.604379770E-3
19.6	4.481973046E-4	-7.978783272E-4	-7.193172597E-4
19.61	4.391660699E-4	-7.969095789E-4	2.606827520E-4
19.62	4.291660659E-4	-7.788470254E-4	-5.294422574E-4
19.63	1.286166059E-3	9.912169304E-5	2.606827520E-4
19.64	-3.738651596E-4	-6.739095391E-4	-5.294422574E-4
19.650000000000002	-5.527714214E-4	1.000904414E-4	-6.243797585E-4
19.66	3.151973260E-4	1.840591834E-4	2.606827520E-4
19.67	-4.588026732E-4	1.830904328E-4	3.556202531E-4
19.68	3.151973260E-4	1.050090390E-3	3.556202531E-4
19.69	4.081973260E-4	1.125027916E-3	3.556202531E-4
19.7	-4.588026732E-4	1.972027823E-3	-5.294422574E-4
19.71	3.151973260E-4	1.159965417E-3	2.606827520E-4
19.72	1.284228560E-3	1.921059150E-3	-5.294422574E-4
19.73	-3.828963942E-4	1.985996693E-3	-6.243797585E-4
19.740000000000002	3.042285737E-4	1.079965384E-3	-6.243797585E-4
19.75	-4.778338931E-4	1.841059100E-3	2.606827520E-4
19.76	-5.627714044E-4	1.915027878E-3	-5.294422574E-4
19.77	3.051973220E-4	1.885996677E-3	-6.243797585E-4
19.78	-1.344833850E-3	1.855996728E-3	-6.243797585E-4
19.79	-1.513740122E-3	2.692996652E-3	-6.243797585E-4
19.8	2.492910767E-4	1.870934179E-3	-6.243797585E-4
19.81	-4.288026355E-4	2.612996602E-3	-6.243797585E-4
19.82	3.542285608E-4	1.790934128E-3	-6.243797585E-4
19.830000000000002	4.301348142E-4	2.542027954E-3	-6.243797585E-4
19.84	-3.585834540E-4	1.027084258E-3	-6.243797585E-4
19.85	3.132977931E-4	6.441831447E-4	-6.243797585E-4
19.86	-1.324833880E-3	2.386121634E-3	1.145745094E-3
19.87	2.402598210E-4	1.669965398E-3	4.505577362E-4
19.88	4.191660806E-4	2.412996569E-3	-5.294422574E-4
19.89	-4.578339226E-4	1.608996649E-3	2.606827520E-4
19.900000000000002	3.242285817E-4	1.485996621E-3	-5.294422574E-4
19.91	-4.578339226E-4	1.465027897E-3	1.145745094E-3
19.92	3.061660704E-4	5.689966973E-4	-4.345047743E-4
19.93	-4.688026584E-4	4.640591756E-4	-6.243797585E-4
19.94	-5.618026561E-4	4.630904228E-4	-6.243797585E-4
19.95	-5.527714214E-4	4.540591881E-4	-6.243797585E-4
19.96	-5.427713964E-4	-4.139095594E-4	2.606827520E-4
19.97	-5.327714088E-4	3.600904398E-4	-1.414504768E-3
19.98	-5.227713838E-4	4.440591630E-4	1.657452508E-4
19.990000000000002	1.221228518E-3	-1.299940781E-3	-5.294422574E-4
20.0	1.390134788E-3	-1.468847055E-3	2.606827520E-4
20.01	5.031348226E-4	-1.448847005E-3	3.556202531E-4
20.02	-2.210865141E-3	-1.437878264E-3	3.556202531E-4
20.03	1.543535756E-4	-1.400784493E-3	-1.414504768E-3
20.04	4.381973216E-4	-1.360784552E-3	-1.604379770E-3
20.05	4.291660659E-4	-1.347878240E-3	1.657452508E-4
20.06	4.281973153E-4	-1.328847013E-3	-5.294422574E-4
20.07	4.191660806E-4	-1.308847047E-3	-6.243797585E-4
20.080000000000002	-1.315802645E-3	-1.279815763E-3	-1.509442269E-3
20.09	-6.167401320E-4	-1.258847039E-3	-7.193172597E-4
20.1	3.451973262E-4	-1.229815754E-3	-1.509442269E-3
20.11	-4.468651469E-4	-1.217878266E-3	1.657452508E-4
20.12	-5.237401321E-4	-1.198847048E-3	-5.294422574E-4
20.13	-5.127713962E-4	-2.054878190E-3	-6.243797585E-4
20.14	-5.027714132E-4	-1.243784532E-3	1.145745094E-3
20.150000000000002	3.651973342E-4	-1.137878308E-3	-4.345047743E-4
20.16	4.491660574E-4	-1.118847007E-3	-6.243797585E-4
20.17	4.391660699E-4	-1.098847032E-3	2.606827520E-4
20.18	-4.378339122E-4	-1.078847066E-3	-5.294422574E-4
20.19	-5.227713838E-4	-1.058847015E-3	-6.243797585E-4
20.2	-5.308339076E-4	-1.047878275E-3	2.606827520E-4
20.21	-5.227713838E-4	-1.028847057E-3	-1.414504768E-3
20.22	3.451973262E-4	-1.008847007E-3	1.657452508E-4
20.23	-1.295802593E-3	-1.864878308E-3	-5.294422574E-4
20.240000000000002	2.702598421E-4	-1.062815819E-3	2.606827520E-4
20.25	-3.997713883E-4	-9.488470161E-4	-5.294422574E-4
20.26	1.251228556E-3	-9.378782757E-4	1.145745094E-3
20.27	-3.138651684E-4	-9.278782927E-4	4.505577362E-4
20.28	-1.377833857E-3	-9.178783096E-4	1.240682595E-3
20.29	-1.453740131E-3	-8.988470079E-4	4.505577362E-4
20.3	-5.577088892E-4	-8.878782675E-4	-5.294422574E-4
20.31	-1.328802597E-3	-8.688470498E-4	-1.509442269E-3
20.32	3.302598333E-4	-8.578783184E-4	-7.193172597E-4
20.330000000000002	-3.488026738E-4	-8.478782513E-4	-6.243797585E-4
20.34	3.224948462E-4	-8.309866560E-4	1.558406364E-4
20.35	5.093164740E-4	-8.180286766E-4	3.556202531E-4
20.36	4.991660656E-4	-8.078783102E-4	1.240682595E-3
20.37	-3.688026443E-4	6.009043724E-5	-4.345047743E-4
20.38	4.142285941E-4	1.530904371E-4	-6.243797585E-4
20.39	-3.588026568E-4	1.440591920E-4	-1.509442269E-3
20.400000000000002	-4.427714220E-4	-7.148783115E-4	1.657452508E-4
20.41	-1.308802631E-3	-7.978783272E-4	3.556202531E-4
20.42	-5.257713924E-4	9.551528887E-4	3.556202531E-4
20.43	-4.137401748E-4	1.125027916E-3	-5.294422574E-4
20.44	-4.027714014E-4	1.114059185E-3	2.606827520E-4
20.45	4.651973086E-4	1.962027840E-3	-1.414504768E-3
20.46	-3.178339298E-4	1.149965434E-3	-7.193172597E-4
20.47	-4.027714014E-4	1.902027933E-3	-6.243797585E-4
20.48	4.471348393E-4	1.965996727E-3	-6.243797585E-4
20.490000000000002	5.291660612E-4	1.935996610E-3	2.606827520E-4
20.5	5.191660737E-4	1.915027878E-3	1.240682595E-3
20.51	-3.578339084E-4	1.876965442E-3	-1.319567285E-3
20.52	-4.427714220E-4	1.845996577E-3	1.657452508E-4
20.53	4.251973255E-4	9.489966526E-4	3.556202531E-4
20.54	-3.488026738E-4	2.596121645E-3	3.556202531E-4
20.55	4.251973255E-4	1.852871709E-3	-1.414504768E-3
20.56	-3.488026738E-4	1.725996594E-3	-1.604379770E-3
20.57	-4.327713970E-4	1.695996627E-3	-7.193172597E-4
20.580000000000002	-4.227714094E-4	1.665996678E-3	-6.243797585E-4
20.59	4.451973380E-4	2.521059071E-3	2.606827520E-4
20.6	1.396166060E-3	2.567934136E-3	-5.294422574E-4
20.61	5.941035622E-4	1.659965415E-3	-6.243797585E-4
20.62	-1.226771367E-3	2.402996586E-3	-1.509442269E-3
20.63	-5.267401407E-4	7.139341556E-4	1.657452508E-4
20.64	-1.271708855E-3	1.372027902E-3	-2.299567278E-3
20.650000000000002	-4.677088979E-4	5.599654206E-4	-1.699317271E-3
20.66	5.042285809E-4	-4.039095343E-4	1.657452508E-4
20.67	5.891660524E-4	2.122152811E-3	3.556202531E-4
20.68	5.701348303E-4	-2.340345582E-4	-5.294422574E-4
20.69	-2.988026656E-4	-5.078783076E-4	2.606827520E-4
20.7	4.751973336E-4	-5.069095593E-4	-5.294422574E-4
20.71	-2.988026656E-4	-4.978782826E-4	-6.243797585E-4
20.72	4.751973336E-4	-4.878782950E-4	-6.243797585E-4
20.73	1.435197333E-3	3.891216871E-4	2.606827520E-4
20.740000000000002	-2.419276464E-4	-3.929407984E-4	3.556202531E-4
20.75	4.351973130E-4	-4.778783120E-4	-5.294422574E-4
20.76	-3.388026487E-4	-4.678782870E-4	-1.509442269E-3
20.77	-4.318026441E-4	-4.578782994E-4	1.657452508E-4
20.78	-1.307833878E-3	-1.323909550E-3	-5.294422574E-4
20.79	-5.077089230E-4	-1.398846997E-3	2.606827520E-4
20.8	4.551973211E-4	-1.378847022E-3	-5.294422574E-4
20.81	-3.188026782E-4	-1.358847056E-3	-6.243797585E-4
20.82	-4.118026781E-4	-1.329815771E-3	-6.243797585E-4
20.830000000000002	-4.118026781E-4	-1.308847047E-3	2.606827520E-4
20.84	1.096843287E-3	-1.291194442E-3	-1.184455894E-3
20.85	-2.197233263E-4	-1.278048375E-3	1.000792763E-3
20.86	-4.327713970E-4	-1.258847039E-3	4.505577362E-4
20.87	1.311228547E-3	-1.229815754E-3	-1.414504768E-3
20.88	5.950723106E-4	-1.208847031E-3	-7.193172597E-4
20.89	4.981973128E-4	-1.197878300E-3	2.606827520E-4
20.900000000000002	4.891660781E-4	-1.178846998E-3	3.556202531E-4
20.91	1.364228521E-3	-1.167878257E-3	3.556202531E-4
20.92	1.431103561E-3	-1.139815805E-3	-1.414504768E-3
20.93	5.341035710E-4	-1.118847007E-3	-1.604379770E-3
20.94	-4.288026355E-4	-1.098847032E-3	1.657452508E-4
20.95	3.451973262E-4	-1.078847066E-3	-5.294422574E-4
20.96	-4.288026355E-4	-1.067878250E-3	2.606827520E-4
20.97	-5.218026309E-4	-1.048847023E-3	3.556202531E-4
20.98	-5.127713962E-4	-1.028847057E-3	-5.294422574E-4
20.990000000000002	1.231228585E-3	-1.008847007E-3	-6.243797585E-4
21.0	5.241035670E-4	-9.978782669E-4	2.606827520E-4
21.01	-4.388026628E-4	-9.788470492E-4	-5.294422574E-4
21.02	-5.227713838E-4	-9.588469991E-4	-6.243797585E-4
21.03	3.542285608E-4	-9.478782587E-4	-6.243797585E-4
21.04	-4.278338872E-4	-9.288470410E-4	-6.243797585E-4
21.05	-5.218026309E-4	-9.178783096E-4	-6.243797585E-4
21.06	-5.127713962E-4	-9.078783266E-4	2.606827520E-4
21.07	3.642285859E-4	-8.978782595E-4	3.556202531E-4
21.080000000000002	1.325197333E-3	-8.788470328E-4	-5.294422574E-4
21.09	5.241035670E-4	-8.769095361E-4	-6.243797585E-4
21.1	-1.323865131E-3	-8.678783014E-4	2.606827520E-4
21.11	-1.484708837E-3	-8.488469997E-4	-1.414504768E-3
21.12	2.702598421E-4	-8.288470246E-4	1.657452508E-4
21.13	-1.275802622E-3	-8.088470586E-4	-1.414504768E-3
21.14	-5.677089142E-4	6.912169293E-5	-7.193172597E-4
21.150000000000002	4.042285645E-4	-6.948782579E-4	2.606827520E-4
21.16	4.801348014E-4	8.009044383E-5	3.556202531E-4
21.17	-3.888026569E-4	1.730904381E-4	3.556202531E-4
21.18	3.851973048E-4	1.049121640E-3	-5.294422574E-4
21.19	4.691660655E-4	1.125027916E-3	2.606827520E-4
21.2	-4.078339166E-4	1.105027950E-3	-5.294422574E-4
21.21	-4.927713882E-4	1.085027900E-3	-1.509442269E-3
21.22	-1.358802634E-3	1.941059116E-3	-7.193172597E-4
21.23	-5.577088892E-4	2.872996701E-3	-6.243797585E-4
21.240000000000002	-4.437401704E-4	2.041902843E-3	-1.509442269E-3
21.25	-4.327713970E-4	1.048996669E-3	1.657452508E-4
21.26	-4.227714094E-4	1.811059151E-3	-5.294422574E-4
21.27	4.451973380E-4	2.742996567E-3	-6.243797585E-4
21.28	-3.288026612E-4	1.911902859E-3	-1.509442269E-3
21.29	-4.218026611E-4	2.671059171E-3	1.657452508E-4
21.3	4.451973380E-4	2.726965320E-3	3.556202531E-4
21.31	-3.288026612E-4	1.810934094E-3	-5.294422574E-4
21.32	-4.218026611E-4	1.695027879E-3	2.606827520E-4
21.330000000000002	1.312197295E-3	1.656965444E-3	-5.294422574E-4
21.34	1.473863905E-3	1.628756914E-3	-1.419271713E-3
21.35	-2.598181775E-4	7.323607738E-4	-7.314647087E-4
21.36	-4.537401579E-4	1.499121622E-3	-6.243797585E-4
21.37	-4.518026567E-4	1.565996662E-3	-6.243797585E-4
21.38	4.242285771E-4	6.689966717E-4	-1.509442269E-3
21.39	5.091660907E-4	5.640591875E-4	1.050807593E-3
21.400000000000002	-3.678338914E-4	5.450279278E-4	4.505577362E-4
21.41	-4.527714050E-4	5.340591919E-4	-5.294422574E-4
21.42	4.151973424E-4	1.400090443E-3	-6.243797585E-4
21.43	-3.678338914E-4	1.465996655E-3	-6.243797585E-4
21.44	-1.319771362E-3	-2.889720672E-4	-1.509442269E-3
21.45	-5.267401407E-4	3.810592008E-4	1.657452508E-4
21.46	4.442285897E-4	-3.939095468E-4	-5.294422574E-4
21.47	-3.378338958E-4	3.800904524E-4	2.606827520E-4
21.48	4.351973130E-4	-1.260909504E-3	-5.294422574E-4
21.490000000000002	-3.478339254E-4	-1.419815795E-3	-1.509442269E-3
21.5	-1.299771396E-3	-1.389815762E-3	-1.604379770E-3
21.51	3.602598244E-4	-1.359815804E-3	-7.193172597E-4
21.52	-3.188026782E-4	-1.329815771E-3	-1.509442269E-3
21.53	-1.269771358E-3	-1.317878282E-3	-7.193172597E-4
21.54	-4.677088979E-4	-1.289815746E-3	-6.243797585E-4
21.55	4.951973042E-4	-1.277878257E-3	-6.243797585E-4
21.56	5.791660649E-4	-1.249815805E-3	-6.243797585E-4
21.57	1.436166081E-3	-1.219815771E-3	-1.509442269E-3
21.580000000000002	-1.108927645E-3	-1.207878283E-3	1.657452508E-4
21.59	-5.067401747E-4	-1.188847065E-3	-5.294422574E-4
21.6	2.207259789E-3	-1.168847015E-3	2.606827520E-4
21.61	-1.579589277E-4	-1.148847040E-3	-1.414504768E-3
21.62	4.251973255E-4	-1.137878308E-3	1.657452508E-4
21.63	-3.397713971E-4	-1.118847007E-3	-5.294422574E-4
21.64	4.351973130E-4	-1.098847032E-3	-6.243797585E-4
21.650000000000002	-3.388026487E-4	-1.069815747E-3	-1.509442269E-3
21.66	-4.318026441E-4	-1.048847023E-3	-7.193172597E-4
21.67	-4.227714094E-4	-1.037878292E-3	-6.243797585E-4
21.68	-1.288802660E-3	-1.027878309E-3	-6.243797585E-4
21.69	3.792910842E-4	-1.008847007E-3	-6.243797585E-4
21.7	-2.988026656E-4	-9.888470322E-4	2.606827520E-4
21.71	4.661660569E-4	-9.688470662E-4	-5.294422574E-4
21.72	-3.088026531E-4	-9.669095695E-4	2.606827520E-4
21.73	-3.927714138E-4	-9.488470161E-4	-5.294422574E-4
21.740000000000002	-3.827713888E-4	-9.288470410E-4	-6.243797585E-4
21.75	1.343166086E-3	-9.178783096E-4	-1.509442269E-3
21.76	-2.328964117E-4	-1.774878284E-3	-7.193172597E-4
21.77	-4.127714264E-4	-9.637845509E-4	-6.243797585E-4
21.78	4.551973211E-4	-8.488469997E-4	2.606827520E-4
21.79	-3.188026782E-4	-8.378782593E-4	3.556202531E-4
21.8	4.461660864E-4	-8.188470416E-4	-5.294422574E-4
21.81	-3.288026612E-4	-8.078783102E-4	2.606827520E-4
21.82	-4.218026611E-4	-7.888470085E-4	-5.294422574E-4
21.830000000000002	-4.127714264E-4	8.912168900E-5	-6.243797585E-4
21.84	3.668669815E-4	-5.955791891E-4	-6.243797585E-4
21.85	5.392900397E-4	-7.590949571E-4	-6.243797585E-4
21.86	5.291660612E-4	-7.478782770E-4	-6.243797585E-4
21.87	5.281973084E-4	-7.288470548E-4	-6.243797585E-4
21.88	5.191660737E-4	1.491216967E-4	-1.509442269E-3
21.89	-3.578339084E-4	-6.239095309E-4	-7.193172597E-4
21.900000000000002	-4.337401453E-4	1.500904496E-4	-2.394504780E-3
21.91	-1.307833878E-3	2.430904472E-4	9.558700920E-4
21.92	3.502598414E-4	1.986121575E-3	-4.345047743E-4
21.93	-3.288026612E-4	1.269965416E-3	-6.243797585E-4
21.94	4.451973380E-4	2.789966822E-4	-6.243797585E-4
21.95	-3.378338958E-4	1.935152900E-3	2.606827520E-4
21.96	1.311228547E-3	2.086965458E-3	-5.294422574E-4
21.97	1.480134821E-3	2.055996593E-3	-6.243797585E-4
21.98	5.841035792E-4	2.007934156E-3	-1.509442269E-3
21.990000000000002	-3.878339040E-4	1.975996710E-3	-7.193172597E-4
22.0	-4.818026523E-4	1.955027828E-3	-6.243797585E-4
22.01	-4.727714176E-4	1.925996609E-3	-6.243797585E-4
22.02	3.861660531E-4	2.744934064E-3	-1.509442269E-3
22.03	-3.888026569E-4	2.796965370E-3	-7.193172597E-4
22.04	-4.727714176E-4	1.013934205E-3	2.606827520E-4
22.05	-4.718026693E-4	1.672027951E-3	-1.414504768E-3
22.06	4.042285645E-4	1.726965343E-3	-7.193172597E-4
22.07	-3.688026443E-4	1.705027862E-3	-6.243797585E-4
22.080000000000002	1.272197274E-3	2.533965300E-3	-1.509442269E-3
22.09	5.550723275E-4	2.586965354E-3	-7.193172597E-4
22.1	4.491660574E-4	1.679965381E-3	-6.243797585E-4
22.11	4.481973046E-4	1.555996679E-3	-6.243797585E-4
22.12	-4.188026525E-4	1.535027880E-3	-6.243797585E-4
22.13	-5.027714132E-4	1.505996671E-3	-1.509442269E-3
22.14	-4.927713882E-4	6.089966804E-4	-7.193172597E-4
22.150000000000002	-4.827714006E-4	5.040591963E-4	-1.509442269E-3
22.16	3.851973048E-4	5.030904480E-4	-7.193172597E-4
22.17	4.601348309E-4	1.379121640E-3	2.606827520E-4
22.18	-3.997713883E-4	5.789966803E-4	-5.294422574E-4
22.19	-4.827714006E-4	1.350090434E-3	-6.243797585E-4
22.2	1.261228539E-3	-3.089720332E-4	-6.243797585E-4
22.21	-3.128964200E-4	-4.969095297E-4	2.606827520E-4
22.22	-1.341708918E-3	-4.788470604E-4	-2.299567278E-3
22.23	-5.377089232E-4	-1.343909521E-3	-8.142547608E-4
22.240000000000002	-4.327713970E-4	-1.418847047E-3	2.606827520E-4
22.25	-1.298802643E-3	-1.398846997E-3	3.556202531E-4
22.26	-5.067401747E-4	-1.387878256E-3	-5.294422574E-4
22.27	4.642285557E-4	-1.368847039E-3	-6.243797585E-4
22.28	-3.088026531E-4	-1.348846988E-3	-6.243797585E-4
22.29	-4.018026485E-4	-1.328847013E-3	-6.243797585E-4
22.3	-4.018026485E-4	-1.299815813E-3	-6.243797585E-4
22.31	4.651973086E-4	-1.287878249E-3	2.606827520E-4
22.32	5.581973040E-4	-1.259815788E-3	-1.414504768E-3
22.330000000000002	5.491660693E-4	-1.229815754E-3	-1.604379770E-3
22.34	1.317999589E-3	-1.210703164E-3	-1.604379770E-3
22.35	6.165086186E-4	-1.189097671E-3	-7.315969884E-4
