Time (s)	Acceleration x (m/s^2)	Acceleration y (m/s^2)	Acceleration z (m/s^2)
0.0	1.504399835E-3	9.020254512E-4	-5.423597662E-3
0.01	3.216306326E-3	6.320776404E-3	-6.587930944E-3
0.02	2.343154032E-3	6.617462286E-3	-6.977871260E-3
0.03	1.473218758E-3	6.568673292E-3	-4.727209690E-3
0.04	1.120807820E-3	5.475018005E-3	-4.864342526E-3
0.05	8.562495624E-4	3.669530049E-3	-5.867304663E-3
0.06	1.293368665E-3	4.415375677E-3	-6.339211103E-3
0.07	2.111813931E-3	4.751042756E-3	-5.901438959E-3
0.08	2.057800693E-3	3.116064859E-3	-4.966354918E-3
0.09	8.278270500E-4	2.799343542E-4	-4.323223619E-3
0.1	-2.657641495E-4	-2.477542292E-3	-4.431837296E-3
0.11	-9.088602333E-4	-4.276357332E-3	-5.387893505E-3
0.12	-9.453108826E-4	-3.884744288E-3	-5.296101155E-3
0.13	-1.141805209E-4	1.419541282E-3	-4.718236531E-3
0.14	1.388027385E-3	1.245454276E-3	-5.344135041E-3
0.15	2.822168751E-3	3.852639397E-3	-5.659155218E-3
0.16	9.933399246E-4	3.772003044E-3	-5.213255720E-3
0.17	1.027462442E-3	1.619020730E-3	-5.436830380E-3
0.18	6.203633430E-5	2.306116768E-3	-5.996417535E-3
0.19	2.423144323E-4	6.864737097E-3	-5.061105861E-3
0.2	-7.887933546E-4	4.108075784E-3	-4.746896830E-3
0.21	2.259210497E-4	1.560517414E-3	-4.185555020E-3
0.22	2.509501643E-4	1.194591321E-3	-4.829641474E-3
0.23	7.089116531E-4	2.052001788E-3	-5.385537061E-3
0.24	2.387192832E-3	2.901794727E-3	-4.918836774E-3
0.25	1.486138625E-3	2.244618855E-3	-5.180054338E-3
0.26	9.512594592E-4	1.115331810E-3	-5.201144064E-3
0.27	3.965722421E-4	-1.303873312E-3	-5.542155677E-3
0.28	7.240521479E-4	-1.064039197E-3	-5.659923896E-3
0.29	-1.178670858E-3	-4.690695376E-4	-5.089923364E-3
0.3	-2.192004331E-4	-4.012011215E-3	-3.816746094E-3
0.31	1.218353516E-3	9.803232907E-4	-4.390727062E-3
0.32	2.112825901E-3	3.974108398E-3	-4.997894597E-3
0.33	2.097654036E-3	5.288699579E-3	-5.212822444E-3
0.34	8.606031273E-4	3.853648578E-3	-4.956566059E-3
0.35000000000000003	-2.602323945E-4	-2.818735960E-4	-4.875153936E-3
0.36	-3.085063759E-4	-1.538575110E-3	-4.920628896E-3
0.37	5.538145115E-4	2.465867692E-3	-4.195633691E-3
0.38	2.083381009E-3	7.524869374E-3	-4.161886679E-3
0.39	3.625843391E-3	8.045503171E-3	-4.590501406E-3
0.4	3.505456190E-3	4.704034284E-3	-3.574144580E-3
0.41000000000000003	2.131386742E-3	5.553474043E-4	-3.147057914E-3
0.42	6.185530196E-4	-3.791097831E-3	-2.777422900E-3
0.43	-3.360809953E-4	-2.363257133E-3	-2.956788988E-3
0.44	-2.932071711E-4	6.885269899E-3	-5.258501640E-3
0.45	2.302491816E-3	7.677690797E-3	-3.915517042E-3
0.46	1.787605706E-3	5.797836278E-3	-2.807093092E-3
0.47000000000000003	1.300414114E-3	2.008146097E-3	-4.112486211E-3
0.48	-2.381243431E-4	-1.068124692E-3	-4.696339129E-3
0.49	1.116422933E-3	-2.554657627E-3	-3.732912078E-3
0.5	1.380042131E-3	-1.409374302E-3	-4.377987654E-3
0.51	1.279066027E-3	9.948885988E-5	-4.109331723E-3
0.52	1.308122590E-3	2.329614537E-3	-4.934798015E-3
0.53	1.079003263E-3	4.520538678E-3	-4.799662327E-3
0.54	9.397460856E-5	2.989008348E-3	-4.676930323E-3
0.55	-6.884084806E-4	3.426593342E-4	-4.871806242E-3
0.56	-6.166776140E-4	9.283662596E-5	-4.269893735E-3
0.5700000000000001	-1.856140304E-4	4.914579811E-4	-3.973985952E-3
0.58	1.384686977E-3	-4.764487403E-4	-4.173799866E-3
0.59	2.746300609E-3	1.096590272E-3	-3.782472873E-3
0.6	2.895223662E-3	2.202790790E-3	-3.013544721E-3
0.61	1.023634055E-3	-1.953632184E-4	-3.518518562E-3
0.62	2.469653476E-4	1.210398277E-3	-3.269724218E-3
0.63	7.359762733E-5	4.929339006E-3	-2.927008738E-3
0.64	-1.402971745E-4	4.041078771E-3	-3.104749377E-3
0.65	1.612270651E-3	7.102442266E-3	-4.032020428E-3
0.66	1.334333997E-3	7.988129239E-3	-3.844960394E-3
0.67	1.126043543E-3	5.706577458E-3	-2.955399269E-3
0.68	1.259962578E-3	3.426575577E-3	-2.375674882E-3
0.6900000000000001	1.002189158E-3	5.100944706E-4	-2.980383889E-3
0.7000000000000001	7.714545987E-6	-4.195188980E-3	-3.462742478E-3
0.71	-7.944878372E-4	-6.331110066E-3	-2.851098367E-3
0.72	5.610096671E-4	-2.538531548E-3	-2.502293197E-3
0.73	2.226634675E-3	-3.909248143E-6	-2.739045870E-3
0.74	2.450976882E-3	3.489488178E-3	-2.829176362E-3
0.75	1.997888470E-3	7.740657630E-3	-3.251359915E-3
0.76	1.191919398E-3	7.836856668E-3	-3.906741164E-3
0.77	-6.149472457E-4	3.436048378E-3	-3.455595342E-3
0.78	-8.318587409E-4	7.084029080E-3	-3.060444716E-3
0.79	1.248949363E-3	7.390504135E-3	-2.335922056E-3
0.8	2.669479323E-3	8.102133698E-3	-3.207139502E-3
0.81	2.789894957E-3	9.117427794E-3	-2.986621565E-3
0.8200000000000001	1.067457421E-3	-1.705370423E-4	-2.345290913E-3
0.8300000000000001	-2.170141456E-4	-5.994333942E-3	-2.492721507E-3
0.84	-5.095129750E-4	-6.695681787E-3	-2.044751959E-3
0.85	-8.236115390E-4	-8.855910182E-3	-1.561337160E-3
0.86	-9.595956985E-4	-1.082934076E-2	-2.083400832E-3
0.87	4.942496235E-4	-5.449025173E-3	-2.467992338E-3
0.88	2.424949306E-3	-1.350822026E-3	-2.411918831E-3
0.89	2.978801489E-3	-2.688887000E-3	-2.015692802E-3
0.9	1.102381710E-3	1.714254444E-3	-1.893818377E-3
0.91	-6.235335175E-4	6.135994885E-3	-2.646878072E-3
0.92	4.653165329E-4	1.220744565E-2	-3.388456670E-3
0.93	1.631315703E-3	2.358924191E-2	-4.795613667E-3
0.9400000000000001	1.822893809E-3	2.355613932E-2	-3.380023923E-3
0.9500000000000001	3.135736014E-4	9.582281778E-3	-2.521377128E-3
0.96	-1.831878360E-3	-1.487628671E-3	-2.657848054E-3
0.97	-2.134623523E-3	-1.320249031E-2	-2.398817667E-3
0.98	-5.374938931E-4	-2.296490214E-2	-1.517093656E-3
0.99	1.295586327E-3	-2.286676359E-2	-1.392490688E-3
1.0	2.663798595E-3	-1.566428258E-2	-1.899805360E-3
1.01	3.058899789E-3	-6.816796207E-3	-1.682181485E-3
1.02	1.405012265E-3	2.255277923E-3	-1.805672394E-3
1.03	-1.427966454E-3	1.101324176E-2	-3.335938068E-3
1.04	-3.001279012E-3	1.712966228E-2	-3.902137262E-3
1.05	5.497133714E-4	2.336477554E-2	-3.030852286E-3
1.06	2.088001952E-3	2.904230248E-2	-3.354403526E-3
1.07	4.012131657E-3	2.208925089E-2	-3.282611143E-3
1.08	2.275732315E-3	6.442404022E-3	-1.263277981E-3
1.09	9.891679722E-4	-1.014482150E-2	-2.645353643E-3
1.1	-1.115436580E-3	-2.689618231E-2	-8.519591918E-4
1.11	-1.886165459E-3	-3.174262995E-2	-6.476552374E-4
1.12	-6.620571191E-4	-2.442921148E-2	-8.530797046E-4
1.1300000000000001	3.610046891E-3	-7.839957040E-3	-1.692161258E-3
1.1400000000000001	4.014175025E-3	7.302007378E-3	-1.667758325E-3
1.1500000000000001	1.866427912E-3	1.670200329E-2	-1.393610456E-3
1.16	9.956729908E-4	3.119331537E-2	-1.672990461E-3
1.17	1.042519042E-3	4.898274322E-2	-3.344994837E-3
1.18	1.446628015E-3	5.190250991E-2	-4.594475005E-3
1.19	1.359703562E-3	3.111122194E-2	-2.965072480E-3
1.2	1.383577127E-3	3.226717586E-3	-2.221057298E-3
1.21	1.836659120E-3	-2.749396870E-2	-1.419634892E-3
1.22	1.357945059E-3	-4.519768198E-2	1.020381777E-3
1.23	-5.291758550E-4	-4.888017671E-2	-4.452116818E-4
1.24	-9.510932278E-4	-5.571127007E-2	5.049291466E-5
1.25	-4.923231435E-3	-4.248612524E-2	-2.300712571E-4
1.26	-4.273837099E-3	-1.601086423E-2	-1.575330205E-3
1.27	-2.345453078E-3	8.083365672E-3	-2.581251506E-3
1.28	1.636804733E-3	3.625546944E-2	-4.011655507E-3
1.29	4.279172330E-3	5.784892795E-2	-4.774335496E-3
1.3	5.416851687E-3	6.074868276E-2	-5.337593252E-3
1.31	3.084733170E-3	4.521901196E-2	-3.604214763E-3
1.32	-6.727885090E-4	2.106846833E-2	-2.317973741E-3
1.33	-2.362080433E-3	-8.646407281E-3	-2.542517443E-3
1.34	-2.640989113E-3	-3.497013031E-2	-6.690143504E-4
1.35	-1.942881353E-3	-4.589135988E-2	6.173816126E-4
1.36	5.458222106E-4	-4.900504298E-2	1.035365659E-3
1.37	2.733692049E-3	-4.476813781E-2	1.301161006E-4
1.3800000000000001	1.091851166E-3	-2.540987366E-2	-1.386161235E-3
1.3900000000000001	4.107287365E-4	-4.121010701E-3	-3.962091772E-3
1.4000000000000001	-8.656523468E-4	1.938778014E-2	-2.637644612E-3
1.41	2.371343872E-4	4.115526978E-2	-3.180804115E-3
1.42	2.596896964E-3	5.387650907E-2	-3.832350813E-3
1.43	3.580914245E-3	5.222175802E-2	-3.080452157E-3
1.44	3.085064195E-3	3.971791143E-2	-3.158078752E-3
1.45	1.604465528E-3	1.548982251E-2	-3.793145063E-3
1.46	-1.923040441E-4	-1.354757763E-2	-1.618985716E-3
1.47	-1.025804156E-3	-3.706375152E-2	7.103384931E-4
1.48	-1.317841473E-3	-5.346224546E-2	2.161493752E-3
1.49	3.149604637E-4	-5.498247216E-2	1.716848048E-3
1.5	5.850920587E-4	-4.300638593E-2	1.051652398E-3
1.51	3.448130104E-3	-1.832246344E-2	4.000980156E-4
1.52	3.010980742E-3	7.855476067E-3	-1.168584732E-3
1.53	2.955881427E-3	3.018682162E-2	-2.680212199E-3
1.54	2.200346405E-3	4.697840106E-2	-4.433767133E-3
1.55	1.647501052E-3	5.164969769E-2	-4.191272090E-3
1.56	1.653521242E-3	4.450129952E-2	-3.839026294E-3
1.57	1.749715199E-3	2.973815833E-2	-3.212847115E-3
1.58	1.340484517E-3	5.708801298E-3	-1.277723823E-3
1.59	3.262367146E-4	-1.895840885E-2	-5.734657183E-4
1.6	-4.365039675E-4	-3.442497561E-2	-1.120726688E-3
1.61	-9.549541369E-4	-4.352658468E-2	-1.142302710E-3
1.62	-2.310069856E-3	-4.642985159E-2	1.533843122E-4
1.6300000000000001	-2.781847896E-3	-3.248691716E-2	-1.490498832E-5
1.6400000000000001	-2.670651523E-3	-1.610934490E-2	-1.502180464E-3
1.6500000000000001	-1.974172401E-3	3.284462144E-3	-2.228681313E-3
1.6600000000000001	1.960255786E-3	2.925320347E-2	-3.618387548E-3
1.67	3.964065210E-3	4.113817184E-2	-3.019197551E-3
1.68	4.879565721E-3	4.198980722E-2	-1.835537658E-3
1.69	2.290106924E-3	3.155666635E-2	-2.143337539E-3
1.7	1.109369194E-3	1.397345229E-2	-2.615568232E-3
1.71	-1.809791944E-5	-6.457484389E-3	-1.431438312E-3
1.72	3.190935670E-4	-1.822207336E-2	-9.418629304E-4
1.73	1.151666839E-3	-2.520968366E-2	-2.610466261E-4
1.74	1.895061972E-3	-2.702401187E-2	2.056503980E-4
1.75	1.445890134E-3	-2.138209243E-2	-4.112440745E-6
1.76	-1.460324566E-3	-1.479660624E-2	8.114229678E-4
1.77	-2.228464062E-3	-2.228449434E-3	8.448112706E-4
1.78	-1.741922256E-3	9.716980680E-3	2.262314267E-4
1.79	6.949881333E-4	2.071119043E-2	-9.320195471E-4
1.8	1.871513595E-3	2.736912302E-2	-1.785776174E-3
1.81	4.535459562E-3	2.594633331E-2	-8.870643058E-4
1.82	4.464499847E-3	1.359448262E-2	-7.976113901E-4
1.83	2.664467619E-3	2.793329534E-3	-1.483333655E-4
1.84	1.017613500E-3	-1.024758561E-2	5.628621403E-4
1.85	5.744020533E-5	-1.926099540E-2	5.675460784E-4
1.86	6.988979765E-4	-1.858894783E-2	-1.189707594E-3
1.87	1.118672075E-3	-1.372623559E-2	-1.105227847E-3
1.8800000000000001	1.224481222E-3	-7.195723348E-3	-7.519968338E-4
1.8900000000000001	7.776899388E-4	-4.387437862E-4	-1.131725215E-3
1.9000000000000001	-6.530573974E-4	4.799560333E-3	-1.326676146E-3
1.9100000000000001	-1.067700116E-3	9.526552824E-3	-1.717910409E-3
1.92	-1.186360495E-3	1.244196316E-2	-4.594716481E-4
1.93	-2.580609315E-4	1.302243677E-2	2.871775975E-4
1.94	5.163325897E-4	9.109476444E-3	-6.998719964E-4
1.95	6.324213943E-4	1.959925583E-3	1.075917140E-4
1.96	-2.788917837E-5	-4.894816081E-3	-1.316122381E-3
1.97	-1.616421823E-3	-1.324630395E-2	-1.470135569E-3
1.98	-2.054553895E-3	-1.844661400E-2	-2.550785206E-3
1.99	-7.651385354E-4	-1.500551500E-2	-1.624473567E-3
2.0	6.037731641E-4	-4.906394935E-3	-1.103128182E-3
2.0100000000000002	3.649187955E-3	6.101410050E-3	-1.170265511E-3
2.02	5.172382438E-3	1.865892805E-2	-1.408885359E-3
2.0300000000000002	7.052697437E-3	2.929963557E-2	-1.984040408E-3
2.04	3.206175260E-2	3.312432296E-2	-2.888409140E-3
2.05	1.656583121E-1	1.481296016E-2	2.115923973E-3
2.06	3.975057237E-1	-2.044466004E-2	1.102799920E-2
2.07	5.350057203E-1	-3.205388293E-2	1.292071594E-2
2.08	5.244129829E-1	-8.482610933E-3	1.088212080E-2
2.09	3.971287488E-1	4.090764736E-2	-1.782105146E-3
2.1	2.724130249E-1	4.665868860E-2	-2.807115458E-3
2.11	2.358566447E-1	-5.550808631E-2	-1.667618267E-3
2.12	1.738827776E-1	-7.378482846E-2	2.957353922E-3
2.13	1.124880983E-1	-1.028186209E-1	5.311055811E-3
2.14	-6.203522171E-3	7.444097321E-3	8.492897628E-3
2.15	-7.683258556E-2	9.078284826E-2	6.637086002E-3
2.16	-1.157980637E-1	1.265721525E-1	5.299631976E-3
2.17	-7.746316040E-2	7.636914195E-2	4.128478983E-3
2.18	-8.769242046E-3	7.879932054E-3	-1.154973220E-3
2.19	5.922973937E-2	-7.152429650E-2	-5.714508378E-3
2.2	8.381359144E-2	-7.565354185E-2	-1.192192579E-2
2.21	7.752525512E-2	-2.616446404E-2	-1.718054208E-2
2.22	6.491636065E-2	9.110952824E-3	-1.966631378E-2
2.23	5.434117007E-2	2.792126850E-2	-2.352016641E-2
2.24	9.978374634E-2	-8.667860720E-3	-2.220496691E-2
2.25	1.396816045E-1	-5.185975870E-2	-2.604117178E-2
2.2600000000000002	1.658386387E-1	-8.569585187E-2	-1.921058941E-2
2.27	1.170603495E-1	-7.498522802E-4	-2.021729951E-2
2.2800000000000002	5.098105802E-2	6.225871374E-2	-7.138780920E-3
2.29	-2.148425764E-2	1.063304198E-1	-1.278089265E-3
2.3000000000000003	-4.466418236E-2	1.002832938E-1	4.443243374E-3
2.31	-3.412963637E-2	1.381083048E-2	3.882878122E-3
2.32	-3.770723134E-2	-5.672839643E-2	-9.207427508E-4
2.33	-8.006420362E-2	-6.415657991E-2	-6.398510049E-3
2.34	-1.643601805E-1	-3.096510972E-2	-7.531547535E-3
2.35	-2.467124988E-1	4.679141379E-3	-4.559645235E-3
2.36	-3.027886403E-1	2.421937970E-2	1.561534600E-4
2.37	-3.189744029E-1	-3.235960598E-3	6.843790870E-3
2.38	-3.146422410E-1	-6.073113250E-2	1.401849753E-2
2.39	-3.420784501E-1	-5.861446467E-2	1.696733937E-2
2.4	-3.913616071E-1	-2.957862351E-2	2.004768761E-2
2.41	-4.657801362E-1	2.595136450E-2	2.299523945E-2
2.42	-5.206256980E-1	6.769147032E-2	2.431675290E-2
2.43	-5.479888366E-1	8.133283784E-2	2.156767431E-2
2.44	-5.137539050E-1	6.021063560E-3	1.988806333E-2
2.45	-4.806678529E-1	-3.509152220E-2	1.472225121E-2
2.46	-4.367713062E-1	-5.976882405E-2	1.262690886E-2
2.47	-4.102503100E-1	-4.176220598E-2	1.010477646E-2
2.48	-3.631821686E-1	-5.915566660E-3	7.854275253E-3
2.49	-3.002190486E-1	2.616431482E-2	5.016129261E-3
2.5	-1.919772825E-1	1.126762305E-2	4.784094810E-3
2.5100000000000002	-5.969048595E-2	-2.139173597E-2	5.416675086E-3
2.52	5.728673967E-2	-3.637311755E-2	5.601544687E-3
2.5300000000000002	1.271059108E-1	-2.934675265E-2	6.996488137E-3
2.54	1.379868846E-1	1.396503183E-2	6.487675657E-3
2.5500000000000003	1.185742074E-1	6.380738445E-2	2.869183911E-3
2.56	8.332369261E-2	7.541186606E-2	-6.017831415E-3
2.57	6.052379485E-2	3.216481372E-2	-1.471015817E-2
2.58	3.192255024E-2	-2.171241250E-2	-2.399851518E-2
2.59	-2.242152165E-2	-6.683928340E-2	-2.555369057E-2
2.6	-1.125122832E-1	-5.541534493E-2	-2.288299021E-2
2.61	-2.071372175E-1	1.755707227E-3	-1.768363986E-2
2.62	-2.582001085E-1	2.913487108E-2	-1.441399029E-2
2.63	-2.438625903E-1	1.804565163E-2	-1.128890220E-2
2.64	-1.853879991E-1	-1.186253277E-2	-9.321608616E-3
2.65	-1.099534053E-1	-3.777600198E-2	-6.332975503E-3
2.66	-4.425961841E-2	-3.027701575E-2	-3.655828315E-3
2.67	1.068141391E-2	1.022864496E-2	-2.081351906E-3
2.68	6.538211213E-2	4.459845254E-2	-1.123803784E-3
2.69	1.301191496E-1	4.563498203E-2	-1.461953040E-3
2.7	2.034253895E-1	2.575398185E-2	-2.778029944E-3
2.71	2.741402064E-1	-1.765596342E-2	-4.328402659E-3
2.72	3.221736146E-1	-4.848061463E-2	-5.428685265E-3
2.73	3.425664276E-1	-4.147949314E-2	-4.718336256E-3
2.74	3.348127212E-1	-3.218464646E-3	-1.345367728E-3
2.75	3.314771248E-1	1.939196592E-2	2.875657710E-3
2.7600000000000002	3.468221743E-1	3.696581464E-2	9.718404264E-3
2.77	3.871482771E-1	1.570764930E-2	1.660782619E-2
2.7800000000000002	4.326984162E-1	-1.316456087E-2	1.959737712E-2
2.79	4.655087779E-1	-1.866683435E-2	1.893820484E-2
2.8000000000000003	4.660276933E-1	9.149211118E-3	1.331984097E-2
2.81	4.444866531E-1	4.262466821E-2	6.866415598E-3
2.82	4.197648831E-1	5.744321821E-2	1.442542866E-3
2.83	4.025074012E-1	4.061595197E-2	-1.308254899E-3
2.84	3.868685359E-1	-7.628244263E-3	4.738537592E-4
2.85	3.491135840E-1	-4.698040008E-2	4.242154736E-3
2.86	2.739918339E-1	-4.435792305E-2	8.175073081E-3
2.87	1.754046711E-1	-1.501526221E-2	8.011149242E-3
2.88	8.379907005E-2	1.280136325E-2	7.437480650E-3
2.89	1.324891932E-2	2.324391961E-2	5.764069068E-3
2.9	-1.774594055E-2	-5.914746920E-3	4.907937678E-3
2.91	-3.705508061E-2	-2.833402318E-2	3.654793870E-3
2.92	-5.924782871E-2	-2.199348084E-2	8.165260240E-4
2.93	-8.154268636E-2	6.326795154E-3	-3.913476583E-3
2.94	-8.784298891E-2	3.453821330E-2	-1.041631450E-2
2.95	-6.400636313E-2	4.280567165E-2	-1.836765512E-2
2.96	-1.776573990E-2	2.396698675E-2	-2.401706726E-2
2.97	4.363494067E-2	-5.595598071E-3	-2.621573277E-2
2.98	1.029674993E-1	-2.489952305E-2	-2.498116259E-2
2.99	1.478711976E-1	-2.760550533E-2	-1.981239770E-2
3.0	1.684380640E-1	-1.348806482E-2	-1.351713602E-2
3.0100000000000002	1.724091782E-1	1.427542557E-2	-7.443292058E-3
3.02	1.641042186E-1	2.175169145E-2	-5.349783269E-3
3.0300000000000002	1.453506638E-1	8.086278072E-3	-3.142046767E-3
3.04	1.136474346E-1	-6.613958375E-3	-3.984928643E-3
3.0500000000000003	5.114307106E-2	-1.678424147E-2	-5.091140312E-3
3.06	-3.860396646E-2	-8.148427462E-3	-4.554974594E-3
3.0700000000000003	-1.554177229E-1	1.742166891E-2	-2.634658230E-3
3.08	-2.738590107E-1	3.511195206E-2	9.476075226E-5
3.09	-3.643022758E-1	2.645452696E-2	3.377466978E-3
3.1	-4.189202666E-1	-4.574452316E-4	5.744051701E-3
3.11	-4.520906620E-1	-2.821731245E-2	8.268499413E-3
3.12	-4.777388948E-1	-4.038525024E-2	1.241645609E-2
3.13	-4.968206118E-1	-2.342413030E-2	1.672459655E-2
3.14	-5.002102177E-1	3.397672997E-3	2.081361320E-2
3.15	-4.696586014E-1	7.585056690E-3	2.447725211E-2
3.16	-4.151042836E-1	-6.595954514E-3	2.568309913E-2
3.17	-3.570972370E-1	-2.159389327E-2	2.314400259E-2
3.18	-3.136931807E-1	-2.492094300E-2	1.693746380E-2
3.19	-2.938741506E-1	-8.701739776E-3	1.199572517E-2
3.2	-2.877635884E-1	1.221297089E-2	6.636592572E-3
3.21	-2.798354937E-1	2.261115617E-2	3.313961515E-3
3.22	-2.638384933E-1	1.632625889E-2	3.531576959E-3
3.23	-2.383216030E-1	1.061041259E-3	7.109591066E-3
3.24	-2.042677814E-1	-1.563780531E-2	1.146765188E-2
3.25	-1.673136364E-1	-2.307457138E-2	1.392505492E-2
3.2600000000000002	-1.281605663E-1	-1.402356762E-2	1.280519682E-2
3.27	-8.426594573E-2	4.173856093E-4	8.743167795E-3
3.2800000000000002	-3.649689933E-2	1.311850768E-2	1.037625057E-3
3.29	1.320426165E-2	1.480615689E-2	-6.514523052E-3
3.3000000000000003	5.860592838E-2	4.194684143E-3	-1.125037256E-2
3.31	9.529730338E-2	-1.210478980E-2	-1.512298674E-2
3.3200000000000003	9.510715140E-2	-1.005479912E-2	-1.915955958E-2
3.33	5.857412696E-2	3.388864601E-3	-1.938616292E-2
3.34	-5.796058866E-5	2.139697889E-2	-2.082256177E-2
3.35	-5.368736570E-2	2.365794166E-2	-2.041883488E-2
3.36	-9.735079024E-2	5.723324172E-3	-1.791955044E-2
3.37	-1.277014499E-1	-2.001229360E-2	-1.274368037E-2
3.38	-1.517130553E-1	-3.058405171E-2	-6.190199393E-3
3.39	-1.680181112E-1	-1.990141875E-2	-8.212672011E-4
3.4	-1.652182622E-1	5.112146109E-4	1.541563424E-3
3.41	-1.267755109E-1	1.426166510E-2	1.064067292E-3
3.42	-5.426850418E-2	8.355565889E-3	-4.972059877E-4
3.43	4.252462072E-2	-6.642278497E-3	-4.137884544E-3
3.44	1.459231940E-1	-1.521114866E-2	-7.592165636E-3
3.45	2.358058906E-1	-6.713344833E-3	-8.377329103E-3
3.46	3.186132121E-1	1.172536533E-2	-7.602855857E-3
3.47	3.924915917E-1	2.371242009E-2	-3.717730752E-3
3.48	4.512326521E-1	2.243177526E-2	3.871293047E-3
3.49	5.003794266E-1	9.485717167E-3	8.962674769E-3
3.5	5.260991473E-1	-1.472739894E-3	1.293722680E-2
3.5100000000000002	5.303453910E-1	-8.321405437E-3	1.407190774E-2
3.52	5.082340272E-1	-3.156805643E-3	1.300844430E-2
3.5300000000000002	4.720384615E-1	6.247314241E-3	1.105472212E-2
3.54	4.225426197E-1	1.470549605E-2	1.003171849E-2
3.5500000000000003	3.677646801E-1	1.618042475E-2	9.916815343E-3
3.56	3.155471036E-1	8.071273533E-3	8.948604807E-3
3.5700000000000003	2.680427267E-1	-2.068255803E-3	6.864846368E-3
3.58	2.186038365E-1	-6.530355567E-3	4.417716141E-3
3.59	1.655223868E-1	-4.684188051E-4	1.822868277E-3
3.6	1.183546065E-1	1.190579924E-2	2.778186850E-3
3.61	7.897806435E-2	1.981839313E-2	4.067895325E-3
3.62	6.772767000E-2	5.684366950E-3	7.333732428E-3
3.63	7.337582704E-2	-1.561574414E-2	8.583559785E-3
3.64	8.055614962E-2	-2.887035380E-2	8.831544550E-3
3.65	7.446973288E-2	-2.100751829E-2	4.777095163E-3
3.66	6.183957151E-2	-3.311700495E-3	-2.996101680E-3
3.67	5.158622889E-2	8.646033000E-3	-1.121474558E-2
3.68	4.843809611E-2	8.288854575E-3	-1.874183701E-2
3.69	5.049796718E-2	-1.212932865E-3	-2.215347392E-2
3.7	4.765078518E-2	-6.859714124E-3	-2.262466720E-2
3.71	3.602446390E-2	2.702947332E-4	-2.093993064E-2
3.72	2.192003516E-2	1.279944269E-2	-1.725544863E-2
3.73	1.510020122E-2	2.000674875E-2	-1.291763351E-2
3.74	2.033289057E-2	1.837145007E-2	-9.362663585E-3
3.75	3.726046739E-2	6.903546863E-3	-6.329366559E-3
3.7600000000000002	5.312144270E-2	-4.627710477E-3	-5.077815971E-3
3.77	6.263511803E-2	-1.033820336E-2	-5.387683151E-3
3.7800000000000002	6.180646257E-2	-1.137815052E-2	-4.940522144E-3
3.79	4.254771902E-2	-5.235750179E-3	-4.906420080E-3
3.8000000000000003	-4.103982355E-4	5.402192915E-4	-3.057458826E-3
3.81	-6.263063400E-2	3.756520767E-3	-1.080651918E-3
3.8200000000000003	-1.352620874E-1	1.391253955E-4	3.469012797E-4
3.83	-2.176848494E-1	-4.950108870E-3	-2.932625220E-4
3.84	-3.136499889E-1	-9.620539499E-3	3.425022280E-3
3.85	-4.082032717E-1	-6.902130181E-3	8.256330059E-3
3.86	-4.950876881E-1	2.418633892E-3	1.485130926E-2
3.87	-5.635147545E-1	8.237750190E-3	2.220320680E-2
3.88	-5.915496813E-1	2.447680372E-3	2.620557211E-2
3.89	-5.793819946E-1	-1.085546869E-2	2.498337728E-2
3.9	-5.374277288E-1	-2.140372002E-2	2.153180108E-2
3.91	-4.783512004E-1	-2.273409794E-2	1.735715478E-2
3.92	-4.112834304E-1	-1.078615598E-2	1.246063499E-2
3.93	-3.294871883E-1	3.317140308E-3	9.485668159E-3
3.94	-2.397823745E-1	3.910149325E-3	7.362143421E-3
3.95	-1.557431135E-1	-2.901042512E-3	8.413428676E-3
3.96	-8.856929408E-2	-8.729369144E-3	8.140988978E-3
3.97	-5.072270847E-2	-4.720944797E-3	8.403887403E-3
3.98	-3.471771495E-2	4.307790686E-3	8.232672542E-3
3.99	-3.498684131E-2	1.147845892E-2	7.411294185E-3
4.0	-3.993194069E-2	1.162882488E-2	5.717234215E-3
4.01	-4.901222719E-2	4.350185883E-3	3.326654608E-3
4.0200000000000005	-6.031236378E-2	-4.247306365E-3	3.899294977E-4
4.03	-7.214951850E-2	-7.918084488E-3	-2.835350076E-3
4.04	-8.260906797E-2	-7.302947091E-3	-7.143550841E-3
4.05	-8.880429576E-2	-3.101803501E-3	-1.314465019E-2
4.0600000000000005	-9.089398787E-2	2.857115155E-3	-1.881471241E-2
4.07	-8.804559207E-2	5.737546927E-3	-2.170040168E-2
4.08	-8.128311467E-2	5.591724229E-3	-2.199062810E-2
4.09	-7.104275390E-2	1.265226658E-3	-1.940341601E-2
4.1	-5.835772378E-2	-2.876427107E-3	-1.422757342E-2
4.11	-4.985409843E-2	-6.322716872E-3	-6.550840704E-3
4.12	-4.249927358E-2	4.991030501E-4	-1.778760519E-3
4.13	-3.318914934E-2	4.654144267E-3	1.396802770E-4
4.14	-1.263563298E-2	2.968662321E-3	-1.560570242E-3
4.15	1.989728553E-2	-6.365294932E-3	-4.209490814E-3
4.16	5.820692204E-2	-1.686083973E-2	-6.655159777E-3
4.17	9.747510585E-2	-1.771860247E-2	-7.758409802E-3
4.18	1.378548926E-1	-6.126492893E-3	-6.156831996E-3
4.19	1.808675036E-1	7.270456013E-3	-2.950838360E-3
4.2	2.330275932E-1	1.211196108E-2	6.256182278E-4
4.21	2.952683316E-1	9.680781225E-3	3.655417238E-3
4.22	3.596156034E-1	3.861892120E-3	4.977448859E-3
4.23	4.107702799E-1	4.703678169E-3	7.329229951E-3
4.24	4.497149890E-1	1.251666253E-2	1.064236060E-2
4.25	4.808887328E-1	1.980483360E-2	1.218019063E-2
4.26	5.023033692E-1	1.872733613E-2	1.269859854E-2
4.2700000000000005	5.101783173E-1	1.067581323E-2	1.284217287E-2
4.28	4.990522836E-1	9.386827302E-4	1.125167320E-2
4.29	4.637010836E-1	-4.867010577E-3	8.512995540E-3
4.3	4.099210349E-1	-5.433353130E-3	5.383811007E-3
4.3100000000000005	3.349788089E-1	-3.258646541E-3	3.569959160E-3
4.32	2.532008132E-1	-1.656944272E-3	3.261627979E-3
4.33	1.688075794E-1	4.530166821E-5	4.936393604E-3
4.34	8.659326524E-2	1.209952566E-3	7.659996709E-3
4.3500000000000005	1.470418430E-2	7.114291375E-4	1.007128684E-2
4.36	-3.214895681E-2	2.502234825E-4	9.921159455E-3
4.37	-6.084247357E-2	-3.028537404E-4	9.372717772E-3
4.38	-6.455820319E-2	2.248064105E-3	4.108258260E-3
4.39	-4.534190156E-2	5.431967971E-3	-1.537132395E-3
4.4	-8.423241464E-3	5.631313779E-3	-8.314167748E-3
4.41	4.626070613E-2	-1.407590133E-3	-1.294570171E-2
4.42	1.048546751E-1	-9.671110287E-3	-1.663097969E-2
4.43	1.512108431E-1	-1.178903923E-2	-1.916247987E-2
4.44	1.762818107E-1	-5.481241842E-3	-1.957193344E-2
4.45	1.795106613E-1	4.424869835E-3	-1.921232971E-2
4.46	1.686719382E-1	1.050826779E-2	-1.737959387E-2
4.47	1.439538392E-1	8.639427286E-3	-1.360574439E-2
4.48	1.070015176E-1	4.244102120E-3	-1.041128922E-2
4.49	5.848439092E-2	2.522458879E-3	-7.059565504E-3
4.5	-8.022210354E-4	6.441416508E-3	-2.256098919E-3
4.51	-6.341424327E-2	1.195613383E-2	2.895295366E-7
4.5200000000000005	-1.101433037E-1	1.061736976E-2	1.369384679E-5
4.53	-1.440755056E-1	4.073863526E-3	-2.349428503E-3
4.54	-1.695662241E-1	-5.290416133E-3	-3.945207491E-3
4.55	-1.951025218E-1	-9.909502324E-3	-4.369174107E-3
4.5600000000000005	-2.237795748E-1	-9.534204915E-3	-2.494240283E-3
4.57	-2.549296270E-1	-8.259711129E-3	2.106100589E-3
4.58	-2.868800797E-1	-6.110468257E-3	8.035073808E-3
4.59	-3.220950952E-1	-5.452938473E-3	1.477242836E-2
4.6000000000000005	-3.621640455E-1	-5.693293858E-3	1.956725721E-2
4.61	-4.026810822E-1	-5.334857643E-3	2.135577688E-2
4.62	-4.363240850E-1	-5.508168444E-3	2.061696264E-2
4.63	-4.601403627E-1	-6.676538359E-3	1.901915371E-2
4.64	-4.717314518E-1	-5.313734134E-3	1.733102004E-2
4.65	-4.669807712E-1	-1.375192470E-3	1.492097811E-2
4.66	-4.432566726E-1	9.089233838E-4	1.352654680E-2
4.67	-3.980255577E-1	-2.312173473E-3	1.249283195E-2
4.68	-3.354086326E-1	-7.373293440E-3	1.234898153E-2
4.69	-2.578309729E-1	-1.090273893E-2	9.854979640E-3
4.7	-1.830779278E-1	-7.303364938E-3	9.187786191E-3
4.71	-1.171328009E-1	7.870530748E-4	9.968004431E-3
4.72	-6.002920732E-2	6.424663984E-3	7.317821707E-3
4.73	-8.851821183E-3	6.202835457E-3	6.158978920E-3
4.74	2.894352436E-2	2.376455169E-3	7.680888485E-3
4.75	4.629775201E-2	-1.624321564E-3	5.046742077E-3
4.76	4.631442580E-2	-1.633119778E-3	-1.460403211E-3
4.7700000000000005	2.683745326E-2	2.483661666E-3	-8.096109856E-3
4.78	-4.469362861E-3	5.085701564E-3	-1.446871512E-2
4.79	-4.099771145E-2	2.491604010E-3	-1.989438602E-2
4.8	-7.499348067E-2	-4.594779848E-3	-2.087742700E-2
4.8100000000000005	-1.108668962E-1	-7.389507442E-3	-1.864846590E-2
4.82	-1.459128969E-1	-5.704764513E-3	-1.442982218E-2
4.83	-1.698534058E-1	-2.193199794E-3	-9.717802373E-3
4.84	-1.771467634E-1	1.396563067E-3	-5.862441301E-3
4.8500000000000005	-1.621340354E-1	6.238991435E-5	-3.508778764E-3
4.86	-1.315385593E-1	8.164719660E-4	-4.556119185E-3
4.87	-8.453852098E-2	9.176938406E-5	-4.502788315E-3
4.88	-1.979344826E-2	-1.381024000E-3	-4.101057101E-3
4.89	5.197658560E-2	-3.169475602E-3	-4.180040024E-3
4.9	1.297966743E-1	-3.486117631E-3	-4.308166732E-3
4.91	2.072776444E-1	-2.119636269E-3	-4.832892946E-3
4.92	2.740635203E-1	4.248695739E-4	-5.390445927E-3
4.93	3.274976939E-1	1.756303553E-3	-4.312887699E-3
4.94	3.700092234E-1	6.982874229E-5	-2.149958260E-3
4.95	4.004437085E-1	-1.573946665E-3	9.309645229E-4
4.96	4.103307933E-1	1.530581473E-3	5.780459964E-3
4.97	4.049398381E-1	8.992340834E-3	1.082213995E-2
4.98	3.896057979E-1	1.749865291E-2	1.531972821E-2
4.99	3.764220521E-1	1.858124195E-2	1.561320421E-2
5.0	3.677339388E-1	1.303009340E-2	1.432957235E-2
5.01	3.598082017E-1	6.679994230E-3	1.126938329E-2
5.0200000000000005	3.507140879E-1	3.368563227E-3	6.857564631E-3
5.03	3.370742657E-1	5.385018307E-3	4.452923381E-3
5.04	3.221417324E-1	6.500822975E-3	3.509503624E-3
5.05	3.059520722E-1	2.527283358E-3	3.811750228E-3
5.0600000000000005	2.828646196E-1	-4.484198834E-3	6.165686781E-3
5.07	2.462490349E-1	-9.365813488E-3	8.746009812E-3
5.08	1.988188076E-1	-9.573389498E-3	9.809646820E-3
5.09	1.414583205E-1	-5.172994813E-3	8.688279809E-3
5.1000000000000005	8.049484092E-2	-1.010624108E-3	6.442293107E-3
5.11	2.772365444E-2	7.213428045E-5	3.978006435E-3
5.12	-1.976849937E-2	2.944030453E-4	-3.860691403E-5
5.13	-5.054441334E-2	2.043198393E-3	-3.247442943E-3
5.14	-6.082249442E-2	3.844617304E-3	-7.719526747E-3
5.15	-5.035496520E-2	3.272285362E-3	-1.186500010E-2
5.16	-1.628053555E-2	2.867491346E-3	-1.555079748E-2
5.17	2.599254064E-2	3.945018096E-3	-1.852180274E-2
5.18	7.464344549E-2	5.466934629E-3	-1.879595933E-2
5.19	1.226605673E-1	3.827221707E-3	-1.739543029E-2
5.2	1.604278847E-1	1.294024689E-3	-1.464169277E-2
5.21	1.824968847E-1	-1.416980046E-3	-1.051851101E-2
5.22	1.814346348E-1	-1.873657607E-3	-7.036617700E-3
5.23	1.577099709E-1	9.913427916E-4	-4.981701037E-3
5.24	1.078290340E-1	4.655787736E-3	-4.312809094E-3
5.25	4.032823944E-2	5.755293615E-3	-4.811508006E-3
5.26	-3.730746892E-2	3.537511474E-3	-6.366468524E-3
5.2700000000000005	-1.144105660E-1	-1.158772589E-3	-6.253729675E-3
5.28	-1.942907198E-1	-2.908013290E-3	-4.602910393E-3
5.29	-2.771702556E-1	-1.684535765E-4	-9.010266410E-4
5.3	-3.425059961E-1	8.570142586E-4	4.017301234E-3
5.3100000000000005	-3.914763484E-1	7.968126930E-5	7.517608278E-3
5.32	-4.225676399E-1	-6.133338780E-3	1.161654893E-2
5.33	-4.375277928E-1	-1.042934726E-2	1.458953726E-2
5.34	-4.426514852E-1	-1.130637120E-2	1.754534980E-2
5.3500000000000005	-4.375079540E-1	-9.248520332E-3	1.806084776E-2
5.36	-4.212091730E-1	-7.244072991E-3	1.876001705E-2
5.37	-3.950726790E-1	-7.140416023E-3	1.918544402E-2
5.38	-3.637782349E-1	-7.256250412E-3	1.825692147E-2
5.39	-3.287208992E-1	-5.902579873E-3	1.546980513E-2
5.4	-2.923805629E-1	-3.808440362E-3	1.092771639E-2
5.41	-2.575713150E-1	-1.784956879E-3	7.893958383E-3
5.42	-2.235734389E-1	-1.661930153E-3	5.737599850E-3
5.43	-1.921368198E-1	-1.117829613E-3	5.770714732E-3
5.44	-1.640116205E-1	-1.564366825E-4	9.339763846E-3
5.45	-1.413623975E-1	1.144318332E-3	1.149582449E-2
5.46	-1.198148042E-1	1.331394571E-3	1.244327059E-2
5.47	-9.811688427E-2	-8.895997875E-4	1.090252269E-2
5.48	-7.852597591E-2	-2.018365377E-3	6.981367271E-3
5.49	-6.410612647E-2	-2.951583253E-4	6.542181636E-4
5.5	-5.176315398E-2	2.816906116E-3	-5.474201069E-3
5.51	-4.154974398E-2	5.295909194E-3	-1.124905884E-2
5.5200000000000005	-3.162720443E-2	3.299287268E-3	-1.547975708E-2
5.53	-2.378860349E-2	-8.268995762E-4	-1.698293339E-2
5.54	-2.353112611E-2	-2.983040897E-3	-1.583608886E-2
5.55	-3.174833908E-2	-2.553799989E-3	-1.488804581E-2
5.5600000000000005	-4.815749025E-2	-1.076317374E-3	-1.322990029E-2
5.57	-6.628436634E-2	-4.430916715E-4	-1.066992453E-2
5.58	-8.192212029E-2	-1.872387075E-3	-8.554198328E-3
5.59	-9.508024497E-2	-5.908987392E-3	-4.916404570E-3
5.6000000000000005	-1.000825332E-1	-7.479596833E-3	-5.422643987E-3
5.61	-9.330425661E-2	-4.318657811E-3	-3.254253920E-3
5.62	-6.930555198E-2	-7.886666136E-4	-2.364231882E-3
5.63	-2.287314477E-2	8.684374980E-4	-3.178410590E-3
5.64	3.951550131E-2	-3.110306409E-4	-5.028408194E-3
5.65	1.206620001E-1	5.647205787E-4	-6.251174644E-3
5.66	2.068899831E-1	2.732986953E-3	-6.081332210E-3
5.67	2.956826863E-1	3.828900448E-3	-3.458702601E-3
5.68	3.812647806E-1	4.103903424E-3	1.027199650E-3
5.69	4.496406519E-1	4.888945971E-3	5.819751137E-3
5.7	4.936908168E-1	6.043132554E-3	9.283198280E-3
5.71	5.167357382E-1	7.323636922E-3	1.193112643E-2
5.72	5.106126574E-1	8.572736579E-3	1.261244184E-2
5.73	4.820395964E-1	7.303186995E-3	1.106121224E-2
5.74	4.362758904E-1	5.486683372E-3	9.841707482E-3
5.75	3.745979451E-1	3.463331868E-3	7.823249325E-3
5.76	3.081148048E-1	5.577644237E-3	6.704318129E-3
5.7700000000000005	2.464611856E-1	6.216219707E-3	7.387272964E-3
5.78	1.928951585E-1	6.372633209E-3	7.213127668E-3
5.79	1.567194441E-1	2.749400480E-3	6.158360113E-3
5.8	1.297848814E-1	-1.241139520E-3	7.118847946E-3
5.8100000000000005	1.121436430E-1	-2.931398073E-3	7.549823216E-3
5.82	1.024186757E-1	-1.502522554E-3	7.771818136E-3
5.83	9.794114846E-2	-5.626057296E-4	7.969558505E-3
5.84	9.915969218E-2	-2.959461815E-3	7.064718833E-3
5.8500000000000005	1.009354620E-1	-6.409419320E-3	4.781165110E-3
5.86	9.885969569E-2	-7.692755248E-3	9.303878142E-4
5.87	9.128409161E-2	-4.944615761E-3	-3.277448980E-3
5.88	7.975472793E-2	-8.950664854E-4	-1.058062912E-2
5.89	7.002472134E-2	2.599877419E-3	-1.636838021E-2
5.9	6.329851668E-2	4.055091056E-3	-1.942927600E-2
5.91	5.975964978E-2	5.182822230E-3	-1.950878405E-2
5.92	5.812980737E-2	6.645043869E-3	-1.716217528E-2
5.93	5.794950697E-2	7.382982136E-3	-1.315419839E-2
5.94	6.028921757E-2	7.246899245E-3	-8.996252419E-3
5.95	6.332058716E-2	5.743144461E-3	-6.513971663E-3
5.96	6.158192637E-2	3.611365789E-3	-5.673718087E-3
5.97	5.175568390E-2	2.672350711E-3	-5.204980245E-3
5.98	3.297598788E-2	7.584247135E-4	-6.828193053E-3
5.99	5.575670025E-3	-6.969456566E-4	-6.238715864E-3
6.0	-3.081978322E-2	-3.690174187E-3	-5.617709116E-3
6.01	-7.834581829E-2	-5.185381083E-3	-4.206255170E-3
6.0200000000000005	-1.330238746E-1	-3.665154378E-3	-1.480821935E-3
6.03	-1.991681228E-1	-1.908898143E-3	7.818389784E-4
6.04	-2.668355338E-1	-1.302369930E-3	3.170024872E-3
6.05	-3.269849191E-1	-2.161059369E-3	6.171495074E-3
6.0600000000000005	-3.791970038E-1	-5.619492100E-3	1.054246795E-2
6.07	-4.261687120E-1	-6.143677883E-3	1.477533088E-2
6.08	-4.624423161E-1	-4.621402278E-3	1.839627617E-2
6.09	-4.818648531E-1	-4.018220569E-3	2.008509604E-2
6.1000000000000005	-4.837902994E-1	-5.211512545E-3	2.023715421E-2
6.11	-4.648677399E-1	-7.705347075E-3	1.909576207E-2
6.12	-4.284332644E-1	-1.001862664E-2	1.571575459E-2
6.13	-3.770189520E-1	-8.669747144E-3	1.171727014E-2
6.140000000000001	-3.170227004E-1	-4.943331271E-3	9.606416576E-3
6.15	-2.506293203E-1	-1.980393918E-3	9.537048923E-3
6.16	-1.782765894E-1	-2.245080610E-3	9.219871550E-3
6.17	-1.138348387E-1	-3.965898852E-4	8.562417658E-3
6.18	-6.164467583E-2	3.759050986E-4	9.746905952E-3
6.19	-2.552372098E-2	2.177157880E-3	1.020182845E-2
6.2	-9.736867532E-3	3.393749853E-3	7.744266816E-3
6.21	-9.203519976E-3	1.791726338E-3	5.815994381E-3
6.22	-2.486054399E-2	8.318315289E-5	2.169712020E-3
6.23	-5.073816240E-2	-8.162495603E-4	-1.879590520E-3
6.24	-8.400068050E-2	-2.553040856E-4	-5.629140232E-3
6.25	-1.160948758E-1	5.055212558E-4	-9.352362880E-3
6.26	-1.390839517E-1	-4.263948078E-4	-1.213068178E-2
6.2700000000000005	-1.517830536E-1	-2.466479416E-3	-1.377937501E-2
6.28	-1.510087065E-1	-2.118337574E-3	-1.703070180E-2
6.29	-1.384890225E-1	-2.596384806E-4	-1.599168923E-2
6.3	-1.164111503E-1	9.660265974E-4	-1.363277906E-2
6.3100000000000005	-8.290862834E-2	2.136259544E-3	-1.102576188E-2
6.32	-4.453887714E-2	-2.207037909E-3	-7.491660918E-3
6.33	-7.862288523E-3	-4.984594700E-3	-2.553738686E-3
6.34	2.033219267E-2	-3.723616243E-3	-2.965901898E-3
6.3500000000000005	4.751267069E-2	-2.283936304E-3	-2.875504338E-3
6.36	7.108549672E-2	-2.055231084E-3	-5.172636684E-3
6.37	9.676226641E-2	-3.092164868E-3	-7.046549718E-3
6.38	1.258310616E-1	-4.260959810E-3	-7.313762260E-3
6.390000000000001	1.574385324E-1	-2.582518516E-3	-5.543235783E-3
6.4	1.918777456E-1	1.278292341E-3	-2.592437941E-3
6.41	2.337577760E-1	5.070869741E-3	7.543915752E-4
6.42	2.835751947E-1	7.536143723E-3	4.151402036E-3
6.43	3.383529536E-1	8.310322087E-3	7.171311022E-3
6.44	3.860020934E-1	9.563166483E-3	8.861350524E-3
6.45	4.288341727E-1	1.049305418E-2	1.005308440E-2
6.46	4.544524490E-1	1.106728979E-2	1.025518046E-2
6.47	4.672990460E-1	8.842800184E-3	1.066339107E-2
6.48	4.613803777E-1	5.791738398E-3	8.581523870E-3
6.49	4.359026028E-1	2.749391695E-3	8.499189051E-3
6.5	3.881603411E-1	2.512321268E-3	6.766259632E-3
6.51	3.311612087E-1	7.324959721E-5	6.014658784E-3
6.5200000000000005	2.644140299E-1	-1.577471702E-3	5.349062749E-3
6.53	1.959539467E-1	-3.116763571E-3	6.120679549E-3
6.54	1.338106583E-1	-3.351104444E-3	7.509421813E-3
6.55	8.037372375E-2	-1.772507465E-3	8.968605814E-3
6.5600000000000005	3.888356746E-2	8.962123548E-4	9.507441485E-3
6.57	1.127726156E-2	2.267885940E-3	9.446728725E-3
6.58	1.836081781E-3	1.046407094E-3	7.728114710E-3
6.59	6.716966911E-3	-2.500836652E-4	2.516790051E-3
6.6000000000000005	2.235193321E-2	-3.079517822E-5	-3.423420793E-3
6.61	4.521935367E-2	1.039409906E-3	-8.290302831E-3
6.62	7.147794632E-2	2.219599046E-3	-1.334066017E-2
6.63	1.039121874E-1	8.006659620E-4	-1.524754514E-2
6.640000000000001	1.316972567E-1	-1.048769752E-3	-1.610942301E-2
6.65	1.512870136E-1	-1.385829182E-3	-1.598038276E-2
6.66	1.596037242E-1	1.444173951E-3	-1.491208910E-2
6.67	1.552167300E-1	4.420758352E-3	-1.321777464E-2
6.68	1.396688585E-1	5.892286283E-3	-1.160325921E-2
6.69	1.102214130E-1	5.312422737E-3	-1.022852806E-2
6.7	7.180963324E-2	4.377290574E-3	-7.750631561E-3
6.71	2.157477953E-2	4.152769754E-3	-5.671615575E-3
6.72	-3.449828467E-2	4.124903524E-3	-4.689268084E-3
6.73	-9.211389310E-2	2.852771294E-3	-4.026604459E-3
6.74	-1.496308610E-1	1.172704104E-4	-3.490488375E-3
6.75	-2.026868525E-1	-2.654447250E-3	-3.285852807E-3
6.76	-2.460477552E-1	-4.338404677E-3	-2.084137701E-3
6.7700000000000005	-2.825955162E-1	-4.388559862E-3	-5.294320939E-4
6.78	-3.127684784E-1	-5.431987471E-3	3.705780461E-3
6.79	-3.317835584E-1	-7.804839999E-3	9.103966634E-3
6.8	-3.427021027E-1	-8.151339076E-3	1.341004652E-2
6.8100000000000005	-3.535461353E-1	-7.563871841E-3	1.759037557E-2
6.82	-3.616629636E-1	-6.593012356E-3	1.861940530E-2
6.83	-3.688444696E-1	-4.018545907E-3	1.814083602E-2
6.84	-3.720954001E-1	-4.485575181E-3	1.660524974E-2
6.8500000000000005	-3.715984527E-1	-5.946726849E-3	1.464658651E-2
6.86	-3.657435635E-1	-5.350610783E-3	1.254727789E-2
6.87	-3.542948915E-1	-3.610020050E-3	1.116471021E-2
6.88	-3.335619308E-1	-2.104923027E-3	1.133823062E-2
6.890000000000001	-3.012292344E-1	-1.290154855E-3	1.188521340E-2
6.9	-2.555182818E-1	-2.149240366E-3	1.132143366E-2
6.91	-1.989517389E-1	-3.268651069E-3	1.018622612E-2
6.92	-1.431794077E-1	-2.315251196E-3	1.015743860E-2
6.93	-8.647162241E-2	2.006708612E-3	9.378259698E-3
6.94	-3.779689835E-2	2.510929157E-3	6.193013819E-3
6.95	1.425345150E-3	1.494106738E-3	5.018161387E-3
6.96	2.590711933E-2	-5.225920384E-4	1.176304849E-3
6.97	2.616850057E-2	-4.908291143E-4	-3.606094846E-3
6.98	8.710667732E-3	4.392924881E-4	-7.826689965E-3
6.99	-2.416192775E-2	7.450633923E-4	-1.216869369E-2
7.0	-6.282790662E-2	-8.561813769E-4	-1.494844970E-2
7.01	-1.046248276E-1	-2.018326160E-3	-1.587664917E-2
7.0200000000000005	-1.436313275E-1	-2.135449818E-3	-1.499154472E-2
7.03	-1.710692511E-1	-2.102215252E-3	-1.211815291E-2
7.04	-1.820841994E-1	-1.388597392E-3	-8.994382178E-3
7.05	-1.732523969E-1	-9.013671737E-4	-6.888396188E-3
7.0600000000000005	-1.443430663E-1	-1.806544895E-3	-5.922412363E-3
7.07	-1.009815869E-1	-2.170405048E-3	-4.694019331E-3
7.08	-4.155651290E-2	-6.437675347E-4	-4.812110267E-3
7.09	2.781195387E-2	1.093852756E-4	-6.993893269E-3
7.1000000000000005	9.622924104E-2	-3.425484074E-4	-6.892650385E-3
7.11	1.632365538E-1	-1.783312062E-3	-6.885961858E-3
7.12	2.261416468E-1	-2.299382715E-3	-6.927877856E-3
7.13	2.755655840E-1	-1.388750312E-3	-5.052196618E-3
7.140000000000001	3.152564045E-1	1.649304124E-3	-2.271939682E-3
7.15	3.443193632E-1	3.557948699E-3	1.015923968E-3
7.16	3.639113276E-1	4.074478404E-3	3.314332940E-3
7.17	3.771391455E-1	5.065342721E-3	6.046732649E-3
7.18	3.800620155E-1	7.037675954E-3	9.416245228E-3
7.19	3.742786160E-1	9.427825222E-3	1.102109326E-2
7.2	3.646261465E-1	1.125213686E-2	1.173326922E-2
7.21	3.528316213E-1	1.056712609E-2	1.095346331E-2
7.22	3.386760130E-1	7.924461463E-3	8.879915510E-3
7.23	3.182236674E-1	5.796131830E-3	7.540729791E-3
7.24	2.930605281E-1	3.964006197E-3	4.642191865E-3
7.25	2.664428957E-1	2.192587128E-3	4.244812376E-3
7.26	2.406046940E-1	-3.218903641E-4	5.771680506E-3
7.2700000000000005	2.115450431E-1	-3.101420528E-3	8.767309296E-3
7.28	1.821037109E-1	-4.605133018E-3	9.848231136E-3
7.29	1.505348609E-1	-4.289574894E-3	1.024305982E-2
7.3	1.184375400E-1	-3.706341901E-3	8.800835665E-3
7.3100000000000005	9.134180931E-2	-2.753945046E-3	6.083487653E-3
7.32	6.934040563E-2	-2.428288351E-3	2.212020704E-3
7.33	5.143426823E-2	-1.123218409E-3	-2.167523566E-3
7.34	3.763266527E-2	1.432587219E-3	-6.567409991E-3
7.3500000000000005	2.940699486E-2	4.116941300E-3	-1.055299145E-2
7.36	3.039248476E-2	5.454447974E-3	-1.240685069E-2
7.37	3.918780164E-2	4.671389192E-3	-1.448216045E-2
7.38	5.612523567E-2	3.415156459E-3	-1.490893955E-2
7.390000000000001	7.708744125E-2	3.587585973E-3	-1.575135457E-2
7.4	9.609332919E-2	3.991736493E-3	-1.291055602E-2
7.41	1.148497297E-1	4.243372430E-3	-1.126065668E-2
7.42	1.262799192E-1	2.597588590E-3	-9.650343603E-3
7.43	1.285063288E-1	8.048123218E-4	-8.037182532E-3
7.44	1.134435393E-1	-2.669075594E-4	-6.491884850E-3
7.45	8.096176014E-2	1.707569331E-4	-5.818016429E-3
7.46	3.112628682E-2	6.422364254E-4	-5.376989677E-3
7.47	-3.085367024E-2	1.407838259E-3	-5.494261207E-3
7.48	-1.040203691E-1	7.269874125E-4	-5.182111524E-3
7.49	-1.846512247E-1	-6.656953030E-4	-3.253453636E-3
7.5	-2.671714981E-1	-1.179401656E-3	4.016522453E-4
7.51	-3.367354178E-1	-2.009963551E-3	4.271229780E-3
7.5200000000000005	-3.911105392E-1	-3.156877347E-3	8.009719718E-3
7.53	-4.297057106E-1	-5.435028708E-3	1.231888117E-2
7.54	-4.453586099E-1	-6.387197193E-3	1.505606686E-2
7.55	-4.404147839E-1	-8.475083089E-3	1.587149390E-2
7.5600000000000005	-4.209630416E-1	-7.968971829E-3	1.588091436E-2
7.57	-3.847904386E-1	-6.627991119E-3	1.640510524E-2
7.58	-3.455418268E-1	-7.270090013E-3	1.629600958E-2
7.59	-3.011037235E-1	-7.159844243E-3	1.493214206E-2
7.6000000000000005	-2.596514938E-1	-5.091555697E-3	1.298357432E-2
7.61	-2.274103827E-1	-3.088306643E-3	1.141445232E-2
7.62	-2.023069080E-1	-7.514712997E-4	1.016388300E-2
7.63	-1.830860382E-1	-6.957982774E-5	9.370668610E-3
7.640000000000001	-1.683683500E-1	-6.886212644E-4	9.672552001E-3
7.65	-1.572135405E-1	-5.163342281E-4	1.060797535E-2
7.66	-1.472779825E-1	2.818674830E-4	1.065409675E-2
7.67	-1.362634327E-1	8.223205402E-4	9.654804984E-3
7.68	-1.240909859E-1	1.007384693E-3	7.296222342E-3
7.69	-1.047513710E-1	-3.762768464E-4	4.103052638E-3
7.7	-8.764755079E-2	-8.282224327E-4	6.971154216E-4
7.71	-7.302422987E-2	-1.503667931E-3	-5.805639593E-3
7.72	-6.173677651E-2	4.590159374E-4	-9.821384936E-3
7.73	-5.504231501E-2	1.524337173E-3	-1.261141186E-2
7.74	-5.424849131E-2	-3.554414225E-4	-1.317413589E-2
7.75	-5.804095799E-2	-1.257998496E-3	-1.264143574E-2
7.76	-6.673123983E-2	-1.932534243E-3	-1.157993617E-2
7.7700000000000005	-7.749714393E-2	-1.139769979E-3	-9.866969353E-3
7.78	-8.719939869E-2	-7.239724106E-4	-8.154878759E-3
7.79	-9.230537596E-2	-2.232320542E-3	-6.880585690E-3
7.8	-8.708436119E-2	-4.218655460E-3	-6.138401197E-3
7.8100000000000005	-7.161723866E-2	-4.612736337E-3	-5.799589717E-3
7.82	-4.384143679E-2	-3.027635279E-3	-5.410751959E-3
7.83	-6.566447382E-3	-1.532637035E-3	-4.793629656E-3
7.84	4.036919656E-2	-6.860345401E-4	-5.559093156E-3
7.8500000000000005	1.029979288E-1	9.948720240E-5	-5.146385740E-3
7.86	1.661105467E-1	7.200658817E-4	-4.414133398E-3
7.87	2.321862598E-1	4.114042823E-3	-4.148906306E-3
7.88	2.924159824E-1	5.802993099E-3	-6.509266679E-4
7.890000000000001	3.474257140E-1	7.018676278E-3	1.243710038E-3
7.9	3.949167900E-1	6.591462453E-3	4.871946753E-3
7.91	4.276677772E-1	6.343031404E-3	8.411572882E-3
7.92	4.422809558E-1	6.604167890E-3	1.057434379E-2
7.930000000000001	4.398731982E-1	6.732387498E-3	1.036810153E-2
7.94	4.240386753E-1	6.450926094E-3	9.161829292E-3
7.95	3.945448751E-1	5.202817401E-3	8.315675958E-3
7.96	3.533993765E-1	3.035611527E-3	6.970950787E-3
7.97	3.018137981E-1	1.505189465E-3	7.606386546E-3
7.98	2.482074467E-1	1.371222979E-3	7.050130470E-3
7.99	1.945841068E-1	1.669054053E-3	8.513934860E-3
8.0	1.450195415E-1	1.758826671E-3	8.108420796E-3
8.01	1.104932500E-1	-5.172572534E-4	8.807607325E-3
8.02	8.562259443E-2	-1.265621081E-3	9.269856562E-3
8.03	7.204844384E-2	-8.502937508E-4	8.530062534E-3
8.040000000000001	6.938687122E-2	-8.160745918E-4	6.988536557E-3
8.05	7.897409743E-2	-1.059318539E-3	4.490798994E-3
8.06	9.436437452E-2	-1.990605206E-3	1.696721483E-3
8.07	1.096977822E-1	-2.900723752E-3	-2.181597290E-3
8.08	1.226684097E-1	-2.134568814E-3	-6.503413187E-3
8.09	1.312192772E-1	-5.626797265E-4	-1.022495254E-2
8.1	1.319646395E-1	8.134050633E-4	-1.300466449E-2
8.11	1.258261015E-1	2.044292616E-3	-1.471276143E-2
8.120000000000001	1.140131211E-1	3.348679692E-3	-1.481295908E-2
8.13	9.696843702E-2	5.428328979E-3	-1.409630407E-2
8.14	7.619012969E-2	7.299007515E-3	-1.016512791E-2
8.15	5.468425480E-2	7.373097099E-3	-7.396538383E-3
8.16	3.651720418E-2	7.374988918E-3	-6.089166967E-3
8.17	1.937556588E-2	4.376935793E-3	-6.007663637E-3
8.18	2.904625419E-3	2.207832735E-3	-5.856252244E-3
8.19	-1.601367689E-2	1.303814677E-3	-6.132911139E-3
8.2	-3.824694239E-2	-4.215704728E-4	-7.660307718E-3
8.21	-6.552870558E-2	-3.008712234E-3	-6.559062778E-3
8.22	-1.006972220E-1	-4.625580691E-3	-4.307862555E-3
8.23	-1.456966695E-1	-5.936476415E-3	-1.708647268E-3
8.24	-1.966030536E-1	-5.620591858E-3	1.445995581E-3
8.25	-2.527805557E-1	-3.560070254E-3	5.043346506E-3
8.26	-3.113997926E-1	-3.100895085E-3	8.564491748E-3
8.27	-3.655796802E-1	-3.093862056E-3	1.203597371E-2
8.28	-4.053087642E-1	-3.811234771E-3	1.333467704E-2
8.290000000000001	-4.326721856E-1	-4.617291457E-3	1.472860991E-2
8.3	-4.458263599E-1	-5.318952831E-3	1.590348416E-2
8.31	-4.404010700E-1	-4.611342351E-3	1.695160452E-2
8.32	-4.098681561E-1	-6.081340723E-3	1.555263800E-2
8.33	-3.661309700E-1	-6.987346579E-3	1.456815964E-2
8.34	-3.162233741E-1	-7.669379600E-3	1.265616816E-2
8.35	-2.582978248E-1	-5.197905750E-3	1.016890646E-2
8.36	-2.006939737E-1	-1.826993274E-3	9.435236479E-3
8.370000000000001	-1.491263273E-1	-1.596609193E-3	1.034848169E-2
8.38	-1.061341691E-1	-8.287072835E-4	1.026887941E-2
8.39	-7.333283493E-2	1.312221315E-3	1.010440449E-2
8.4	-5.474549194E-2	2.399792412E-3	1.005264194E-2
8.41	-4.888020596E-2	2.878635709E-3	7.921705739E-3
8.42	-5.339615923E-2	2.498036444E-3	4.510292191E-3
8.43	-6.387492117E-2	4.984639118E-5	5.525655877E-4
8.44	-8.023997990E-2	-1.602519182E-3	-3.123383125E-3
8.45	-1.007700181E-1	-1.326519626E-3	-6.290394362E-3
8.46	-1.208536671E-1	-1.871418158E-3	-8.778337804E-3
8.47	-1.363059858E-1	-1.896416193E-3	-1.079745231E-2
8.48	-1.444686540E-1	-2.423121036E-3	-1.208036252E-2
8.49	-1.457163148E-1	-2.532818631E-3	-1.125216586E-2
8.5	-1.391577927E-1	-1.747221354E-3	-1.047929273E-2
8.51	-1.232434912E-1	1.286124838E-4	-9.108111923E-3
8.52	-1.002054637E-1	1.252339669E-3	-7.643577190E-3
8.53	-6.835360383E-2	2.125834181E-4	-6.438110805E-3
8.540000000000001	-3.016995283E-2	-1.198642470E-3	-5.518942101E-3
8.55	1.196597398E-2	-1.623358411E-3	-5.194333758E-3
8.56	5.336143954E-2	-2.168334356E-3	-6.031161271E-3
8.57	9.679898262E-2	-1.964732718E-3	-6.320645749E-3
8.58	1.367236637E-1	-2.697087862E-3	-7.766855254E-3
8.59	1.766825022E-1	-3.646856906E-3	-7.056625062E-3
8.6	2.111923250E-1	-2.382649588E-3	-5.109744084E-3
8.61	2.426946141E-1	1.287594572E-3	-1.833180562E-3
8.620000000000001	2.704206083E-1	4.933063865E-3	1.333931560E-3
8.63	2.962903154E-1	6.533555341E-3	4.527366511E-3
8.64	3.219541622E-1	7.664130967E-3	7.140813753E-3
8.65	3.441781866E-1	8.948411198E-3	8.249582796E-3
8.66	3.612257713E-1	9.200265175E-3	8.492985227E-3
8.67	3.746353281E-1	9.425025179E-3	8.270179966E-3
8.68	3.796325720E-1	8.148650781E-3	7.750835638E-3
8.69	3.774672348E-1	4.857904772E-3	7.122900949E-3
8.700000000000001	3.643785231E-1	2.123866994E-3	7.385585936E-3
8.71	3.380268475E-1	-8.493219244E-5	6.481418701E-3
8.72	3.009273872E-1	-1.918409883E-3	7.107495124E-3
8.73	2.554544999E-1	-2.238210241E-3	7.013841303E-3
8.74	2.025184686E-1	-3.059892033E-3	7.583079830E-3
8.75	1.493392316E-1	-3.613696482E-3	8.747344369E-3
8.76	9.964037744E-2	-2.986355190E-3	8.502576329E-3
8.77	5.684348833E-2	-4.156395838E-4	8.029712877E-3
8.78	2.614021316E-2	1.786132296E-3	6.383496633E-3
8.790000000000001	1.347759365E-2	2.369444272E-3	3.455051808E-3
8.8	1.867070826E-2	2.614917319E-3	-4.087883850E-4
8.81	3.538035783E-2	2.515701515E-3	-4.332921399E-3
8.82	6.249101035E-2	2.253314493E-3	-8.123372235E-3
8.83	9.536955726E-2	2.433564646E-3	-1.199980734E-2
8.84	1.279038655E-1	1.578465572E-3	-1.341023883E-2
8.85	1.563665347E-1	1.538317233E-3	-1.311622670E-2
8.86	1.766351431E-1	5.758345994E-4	-1.193090066E-2
8.870000000000001	1.771287322E-1	7.672942870E-4	-1.166450292E-2
8.88	1.633237077E-1	1.412469198E-3	-9.853796331E-3
8.89	1.335649249E-1	3.384829705E-3	-1.023762482E-2
8.9	9.326134162E-2	3.827961274E-3	-8.466817719E-3
8.91	4.281101277E-2	4.542631750E-3	-7.866708675E-3
8.92	-1.444225537E-2	4.106143376E-3	-6.678620189E-3
8.93	-7.145506786E-2	3.531646670E-3	-5.244162304E-3
8.94	-1.230281968E-1	2.325999844E-3	-4.489004186E-3
8.950000000000001	-1.700853805E-1	-4.080944479E-4	-3.596448522E-3
8.96	-2.113716105E-1	-2.766590351E-3	-2.367389732E-3
8.97	-2.455427236E-1	-3.648304252E-3	-2.968250301E-4
8.98	-2.753847750E-1	-4.722866119E-3	2.767948154E-3
8.99	-2.993661352E-1	-6.188159510E-3	5.645447658E-3
9.0	-3.160532120E-1	-6.815557143E-3	8.892756926E-3
9.01	-3.282311705E-1	-7.257959982E-3	1.261631980E-2
9.02	-3.383884808E-1	-6.057697197E-3	1.451126827E-2
9.03	-3.458013700E-1	-5.535504917E-3	1.628222051E-2
9.040000000000001	-3.475011762E-1	-3.676033298E-3	1.459289337E-2
9.05	-3.429733489E-1	-3.312490714E-3	1.391850168E-2
9.06	-3.323953081E-1	-4.185573645E-3	1.255202846E-2
9.07	-3.161431832E-1	-3.894940624E-3	1.027933300E-2
9.08	-2.933771249E-1	-4.027857318E-3	1.044841913E-2
9.09	-2.676089377E-1	-3.299264987E-3	1.207540012E-2
9.1	-2.363140017E-1	-2.005316404E-3	1.237173176E-2
9.11	-2.015678128E-1	-1.552591176E-3	1.265565676E-2
9.120000000000001	-1.662452391E-1	-1.886597449E-3	1.290986763E-2
9.13	-1.307284354E-1	-1.512789013E-3	1.125933460E-2
9.14	-9.894375783E-2	1.036290455E-3	8.251505310E-3
9.15	-7.491486190E-2	9.133709251E-4	4.807130599E-3
9.16	-5.723731501E-2	1.668397019E-3	2.289913140E-3
9.17	-4.395366907E-2	1.076757074E-3	-7.236949725E-4
9.18	-4.269926714E-2	1.808919509E-4	-3.241972295E-3
9.19	-4.997426489E-2	-5.899901553E-4	-7.909262484E-3
9.200000000000001	-6.338077201E-2	-1.921043752E-4	-9.715747804E-3
9.21	-8.191975559E-2	-2.313117101E-3	-1.092406849E-2
9.22	-1.031621296E-1	-3.295374553E-3	-1.133110871E-2
9.23	-1.234552638E-1	-2.981494754E-3	-1.045022206E-2
9.24	-1.385915081E-1	-3.411167161E-3	-9.238369951E-3
9.25	-1.445558654E-1	-2.592156044E-3	-7.303987749E-3
9.26	-1.397913061E-1	-1.374036775E-3	-6.025558702E-3
9.27	-1.189287617E-1	-1.354356269E-3	-5.814240899E-3
9.28	-8.374377079E-2	-1.167884810E-3	-5.266128075E-3
9.290000000000001	-3.365385997E-2	-1.950772053E-4	-6.877904326E-3
9.3	2.408196639E-2	3.685446508E-5	-7.642003487E-3
9.31	8.782102791E-2	8.997298476E-4	-7.783002132E-3
9.32	1.604524643E-1	4.012296943E-4	-6.798263297E-3
9.33	2.251486851E-1	-3.688163559E-4	-6.832365362E-3
9.34	2.857872987E-1	1.759349936E-4	-2.872955009E-3
9.35	3.284724775E-1	1.854643064E-3	-4.551948377E-4
9.36	3.575938845E-1	3.206999481E-3	2.223888221E-3
9.370000000000001	3.744819331E-1	4.347103042E-3	4.198668796E-3
9.38	3.751951624E-1	4.878021979E-3	5.990432031E-3
9.39	3.645761796E-1	5.746627140E-3	7.457049622E-3
9.4	3.452106481E-1	6.852390758E-3	8.346549876E-3
9.41	3.216729339E-1	7.881322640E-3	8.908751078E-3
9.42	2.975157134E-1	8.104718388E-3	8.636357148E-3
9.43	2.739478238E-1	6.646873290E-3	7.722783371E-3
9.44	2.541721976E-1	4.104604598E-3	7.214462085E-3
9.450000000000001	2.379531101E-1	2.538120203E-3	5.532667487E-3
9.46	2.244640457E-1	8.160017386E-4	6.996958153E-3
9.47	2.100155450E-1	-9.758178712E-4	7.440755371E-3
9.48	1.969124390E-1	-3.677602808E-3	9.515329035E-3
9.49	1.778532768E-1	-4.656527307E-3	9.240385783E-3
9.5	1.598707708E-1	-4.628128255E-3	8.875185303E-3
9.51	1.371009904E-1	-3.574084403E-3	7.081378581E-3
9.52	1.123729591E-1	-2.100496149E-3	3.769009899E-3
9.53	9.071084763E-2	-5.196442506E-4	3.302700278E-4
9.540000000000001	7.474362190E-2	9.140723994E-4	-3.376516701E-3
9.55	6.377213711E-2	2.323532776E-3	-6.635833995E-3
9.56	5.776225695E-2	4.096179932E-3	-9.207981304E-3
9.57	5.989888349E-2	5.551449450E-3	-1.108598625E-2
9.58	6.941003652E-2	5.505799429E-3	-1.183732387E-2
9.59	8.533579968E-2	4.273259380E-3	-1.135910237E-2
9.6	1.005822135E-1	3.156404992E-3	-1.078944620E-2
9.61	1.130066434E-1	2.299242402E-3	-1.126762584E-2
9.620000000000001	1.178603075E-1	3.835194856E-3	-9.825068909E-3
9.63	1.131450823E-1	2.012554101E-3	-9.382614511E-3
9.64	9.859431558E-2	5.932598139E-4	-8.392861543E-3
9.65	7.067825404E-2	2.427349524E-4	-6.949845124E-3
9.66	3.182195877E-2	3.364114398E-4	-6.747159840E-3
9.67	-1.970939941E-2	6.226193694E-4	-6.927477183E-3
9.68	-7.966249137E-2	3.765743182E-4	-5.731838529E-3
9.69	-1.423255689E-1	-4.403484362E-4	-5.709820191E-3
9.700000000000001	-2.022888482E-1	-1.422245062E-3	-2.694717792E-3
9.71	-2.585436705E-1	-2.552802037E-3	6.808823607E-4
9.72	-3.136190934E-1	-2.947462613E-3	4.210948043E-3
9.73	-3.516049074E-1	-4.079829852E-3	8.503003748E-3
9.74	-3.790825104E-1	-5.630463323E-3	1.084146677E-2
9.75	-3.936973643E-1	-7.104736274E-3	1.198590117E-2
9.76	-3.942548234E-1	-7.764731410E-3	1.314463712E-2
9.77	-3.810221935E-1	-6.886533282E-3	1.414397928E-2
9.78	-3.570030478E-1	-5.555547604E-3	1.291672267E-2
9.790000000000001	-3.254645778E-1	-5.294224282E-3	1.224420899E-2
9.8	-2.875157594E-1	-5.063501511E-3	1.147051060E-2
9.81	-2.479136516E-1	-3.847315671E-3	1.081512466E-2
9.82	-2.108752226E-1	-2.066993929E-3	1.062588233E-2
9.83	-1.801116867E-1	-6.777315344E-4	1.015695598E-2
9.84	-1.548376268E-1	2.848473748E-4	1.035920937E-2
9.85	-1.332326072E-1	5.684732001E-4	1.072830257E-2
9.86	-1.213707845E-1	3.075680411E-4	1.065628345E-2
9.870000000000001	-1.158462849E-1	6.694474769E-4	9.818851615E-3
9.88	-1.165709184E-1	1.146233876E-3	7.722516688E-3
9.89	-1.201592330E-1	8.140124526E-4	5.020380184E-3
9.9	-1.234442322E-1	1.261846395E-4	1.876034961E-3
9.91	-1.250690106E-1	-6.982477609E-4	-2.286171931E-3
9.92	-1.238079757E-1	-7.761713149E-5	-5.671411955E-3
9.93	-1.189676495E-1	-4.144744101E-4	-9.181792758E-3
9.94	-1.116973143E-1	-1.752026502E-4	-1.074837146E-2
9.950000000000001	-1.020280122E-1	-3.940283114E-4	-1.072058322E-2
9.96	-9.068401716E-2	-1.316174567E-3	-1.058954191E-2
9.97	-7.951065245E-2	-2.037609896E-3	-9.573986608E-3
9.98	-7.069199182E-2	-2.334921305E-3	-7.767482164E-3
9.99	-6.325930546E-2	-2.027239545E-3	-7.134574457E-3
10.0	-5.586492109E-2	-1.551667213E-3	-6.741474264E-3
10.01	-4.420302495E-2	-2.775513107E-3	-6.330146384E-3
10.02	-2.920667054E-2	-3.015553495E-3	-6.946768885E-3
10.03	-4.575297367E-3	-2.117015639E-3	-7.969165969E-3
10.040000000000001	2.422227401E-2	4.495567115E-4	-6.978756710E-3
10.05	6.253068580E-2	1.033194859E-4	-6.971220342E-3
10.06	1.135483927E-1	2.193409394E-3	-5.297149978E-3
10.07	1.684993952E-1	2.300521836E-3	-5.318109723E-3
10.08	2.279278744E-1	3.725000572E-3	-2.520262345E-3
10.09	2.837280480E-1	5.364535680E-3	1.487660862E-5
10.1	3.335579425E-1	5.878709618E-3	2.437542682E-3
10.11	3.754501849E-1	5.667206133E-3	4.704558105E-3
10.120000000000001	4.015767596E-1	5.290693366E-3	6.526192062E-3
10.13	4.105074990E-1	5.097534830E-3	7.998192129E-3
10.14	4.025113575E-1	5.237361718E-3	8.196797972E-3
10.15	3.802105290E-1	5.177397392E-3	7.797515539E-3
10.16	3.444601399E-1	4.324060050E-3	6.392291826E-3
10.17	3.009698873E-1	2.059318395E-3	6.607263249E-3
10.18	2.513530175E-1	1.624118174E-3	6.436194915E-3
10.19	2.067386176E-1	9.288650406E-4	8.187835016E-3
10.200000000000001	1.663467074E-1	4.653947759E-4	8.568080272E-3
10.21	1.329134923E-1	4.927386959E-4	9.697033312E-3
10.22	1.097155127E-1	5.288576146E-6	1.032085264E-2
10.23	9.701218278E-2	-5.505099930E-4	9.150254873E-3
10.24	9.305573008E-2	-3.912747644E-4	7.488567933E-3
10.25	9.487275106E-2	-1.829600695E-4	5.667238070E-3
10.26	1.017079883E-1	-5.872951043E-4	2.969824960E-3
10.27	1.131244812E-1	-1.008734142E-3	-7.712216665E-4
10.28	1.228839442E-1	-1.124182272E-3	-3.917951676E-3
10.290000000000001	1.330906201E-1	-8.302477452E-4	-7.599674637E-3
10.3	1.380505158E-1	1.045677861E-3	-9.792475072E-3
10.31	1.381456599E-1	2.978526943E-3	-1.144879939E-2
10.32	1.347414782E-1	3.882248405E-3	-1.373377351E-2
10.33	1.255392486E-1	3.918682135E-3	-1.357543053E-2
10.34	1.125236291E-1	4.499272862E-3	-1.205808819E-2
10.35	9.503058419E-2	4.897097901E-3	-9.883007818E-3
10.36	7.311986488E-2	4.902103558E-3	-8.621777980E-3
10.370000000000001	4.734995745E-2	4.211337056E-3	-7.416671129E-3
10.38	1.959156246E-2	2.812121372E-3	-6.848097590E-3
10.39	-1.114028126E-2	1.045620407E-3	-7.254143034E-3
10.4	-4.499369708E-2	-5.442911446E-4	-7.227368885E-3
10.41	-7.875332317E-2	-1.521681055E-3	-7.673781756E-3
10.42	-1.155821019E-1	-3.109050219E-3	-5.138642971E-3
10.43	-1.531350401E-1	-2.317432073E-3	-2.930283949E-3
10.44	-1.879010245E-1	-4.435889024E-3	-7.806780618E-4
10.450000000000001	-2.242209362E-1	-3.954373996E-3	3.186937006E-3
10.46	-2.607499256E-1	-4.818793594E-3	5.802752250E-3
10.47	-2.932313302E-1	-5.029421158E-3	8.309334785E-3
10.48	-3.227741477E-1	-3.845989969E-3	9.773237836E-3
10.49	-3.476229521E-1	-4.208565545E-3	1.143256024E-2
10.5	-3.643000716E-1	-4.453523308E-3	1.219150351E-2
10.51	-3.717223972E-1	-4.207392552E-3	1.302380972E-2
10.52	-3.685677346E-1	-4.085921558E-3	1.301181386E-2
10.53	-3.548148112E-1	-4.687407345E-3	1.215491947E-2
10.540000000000001	-3.269170751E-1	-5.508816148E-3	1.165330494E-2
10.55	-2.898003603E-1	-4.662167538E-3	1.120115206E-2
10.56	-2.482979513E-1	-2.919492282E-3	9.864650149E-3
10.57	-2.008477438E-1	-2.548476168E-3	1.010012969E-2
10.58	-1.518293415E-1	-1.469855356E-3	1.159597583E-2
10.59	-1.105512371E-1	-1.101974080E-3	1.034379852E-2
10.6	-7.867262827E-2	1.997611721E-3	1.019615713E-2
10.61	-5.913286741E-2	1.592818332E-3	8.293957741E-3
10.620000000000001	-5.089826460E-2	1.257878629E-3	5.579292734E-3
10.63	-5.760955475E-2	4.496849668E-4	1.796633296E-3
10.64	-7.339381094E-2	-7.461215335E-4	-1.957111326E-3
10.65	-9.685955497E-2	-1.387377426E-3	-4.976140901E-3
10.66	-1.222223140E-1	-1.887903186E-3	-6.820536433E-3
10.67	-1.451692280E-1	-2.700496889E-3	-8.199049039E-3
10.68	-1.626833357E-1	-3.004473057E-3	-8.795245249E-3
10.69	-1.694148499E-1	-2.308038903E-3	-8.597177519E-3
10.700000000000001	-1.660071202E-1	-1.607816064E-3	-8.704220273E-3
10.71	-1.501109998E-1	-1.550374937E-3	-8.046633980E-3
10.72	-1.228597404E-1	-7.981372781E-4	-7.854317649E-3
10.73	-8.822249424E-2	-1.232571272E-3	-7.540117727E-3
10.74	-4.550794487E-2	-9.875341799E-4	-7.180780993E-3
10.75	-4.216784357E-3	-2.621281842E-3	-7.168440191E-3
10.76	4.133943279E-2	-9.956567763E-4	-7.304707334E-3
10.77	8.134991398E-2	-1.323057328E-3	-7.826706205E-3
10.78	1.196627030E-1	-1.352976418E-3	-7.628374254E-3
10.790000000000001	1.561724313E-1	-1.255662769E-3	-7.243716212E-3
10.8	1.880311609E-1	-8.702316452E-4	-6.150333286E-3
10.81	2.156084780E-1	7.749602533E-4	-3.782683699E-3
10.82	2.410710985E-1	2.859482721E-3	-1.413298068E-3
10.83	2.646452114E-1	5.138167465E-3	9.326891635E-4
10.84	2.866734075E-1	6.949840348E-3	3.305772961E-3
10.85	3.082565900E-1	7.117296855E-3	5.039336414E-3
10.86	3.249630203E-1	7.185697653E-3	6.882556993E-3
10.870000000000001	3.362509882E-1	6.945125769E-3	7.275087007E-3
10.88	3.395576796E-1	7.062120196E-3	6.107815473E-3
10.89	3.363639779E-1	7.017592395E-3	5.924967063E-3
10.9	3.264195992E-1	4.442571153E-3	6.082006129E-3
10.91	3.059436542E-1	1.973490761E-3	6.056230199E-3
10.92	2.806721454E-1	-7.752772911E-5	7.756633450E-3
10.93	2.468594537E-1	-1.440565998E-3	7.856490817E-3
10.94	2.091900602E-1	-2.607146789E-3	8.038628493E-3
10.950000000000001	1.730422736E-1	-2.631084491E-3	7.655676878E-3
10.96	1.402836410E-1	-2.770674722E-3	7.370228347E-3
10.97	1.111982074E-1	-2.188760378E-3	7.571776329E-3
10.98	8.756161999E-2	-1.118224362E-3	6.746985775E-3
10.99	7.229871110E-2	-2.868477035E-4	3.904070789E-3
11.0	6.346558261E-2	1.255776568E-3	5.723162904E-4
11.01	6.530120338E-2	2.886720658E-3	-2.645964096E-3
11.02	7.560430753E-2	2.509121543E-3	-5.749306660E-3
11.03	8.940588635E-2	2.461507278E-3	-8.920029170E-3
11.040000000000001	1.079194176E-1	3.791768193E-3	-1.143985576E-2
11.05	1.254876567E-1	3.748252292E-3	-1.253724512E-2
11.06	1.431727852E-1	2.054086514E-3	-1.135837775E-2
11.07	1.538919786E-1	7.571219082E-4	-1.052004607E-2
11.08	1.532548948E-1	1.497906209E-3	-9.878482640E-3
11.09	1.421602573E-1	2.378306402E-3	-8.882344917E-3
11.1	1.192539293E-1	2.581690772E-3	-8.480525783E-3
11.11	8.529895914E-2	2.985054550E-3	-8.883034512E-3
11.120000000000001	4.059904948E-2	2.054053453E-3	-9.172044998E-3
11.13	-9.920533719E-3	1.437800945E-3	-8.224862010E-3
11.14	-6.576461142E-2	1.897969049E-3	-6.536527418E-3
11.15	-1.265696952E-1	8.783980852E-4	-5.731115072E-3
11.16	-1.830331596E-1	9.203692458E-5	-3.494800376E-3
11.17	-2.293980978E-1	-2.066389966E-3	-1.622344833E-3
11.18	-2.658294724E-1	-3.890306004E-3	1.241171902E-3
11.19	-2.950055758E-1	-4.781119972E-3	3.775454970E-3
11.200000000000001	-3.111084388E-1	-4.880451361E-3	6.294580134E-3
11.21	-3.170827734E-1	-5.644881330E-3	8.720087109E-3
11.22	-3.169228220E-1	-5.885929038E-3	1.055318515E-2
11.23	-3.106809800E-1	-6.166703213E-3	1.179165336E-2
11.24	-3.022240517E-1	-6.007282768E-3	1.225670367E-2
11.25	-2.924767958E-1	-5.389533925E-3	1.167423393E-2
11.26	-2.821793897E-1	-4.894400042E-3	1.105792220E-2
11.27	-2.718175298E-1	-3.705625092E-3	1.020624246E-2
11.28	-2.606923960E-1	-2.459093949E-3	9.659109007E-3
11.290000000000001	-2.483907507E-1	-2.299764003E-3	1.001122630E-2
11.3	-2.342180015E-1	-1.706387569E-3	1.074106161E-2
11.31	-2.165693473E-1	-1.848929088E-4	1.179519852E-2
11.32	-1.955735467E-1	-9.472846865E-4	1.185013650E-2
11.33	-1.697439253E-1	-6.559145236E-4	1.128798872E-2
11.34	-1.428686466E-1	-6.580467675E-4	9.906028213E-3
11.35	-1.158947991E-1	4.806451996E-4	7.930322321E-3
11.36	-9.406577834E-2	4.016223513E-4	3.904138128E-3
11.370000000000001	-7.836076453E-2	1.623965577E-4	7.823995487E-4
11.38	-7.009814424E-2	1.065049293E-4	-2.748799592E-3
11.39	-6.792670021E-2	-9.458630611E-4	-5.443683131E-3
11.4	-7.523773617E-2	-2.133223474E-3	-6.637561868E-3
11.41	-8.925244850E-2	-1.815631117E-3	-8.574015346E-3
11.42	-1.059166091E-1	-2.036538401E-3	-9.354427617E-3
11.43	-1.220869262E-1	-2.622001854E-3	-9.012294193E-3
11.44	-1.338991176E-1	-2.909992137E-3	-8.644745235E-3
11.450000000000001	-1.394112787E-1	-3.475366900E-3	-7.779708598E-3
11.46	-1.338298588E-1	-2.567530724E-3	-7.023898021E-3
11.47	-1.162214049E-1	-9.828823202E-4	-6.801308818E-3
11.48	-8.632595700E-2	-1.078161514E-3	-5.556004845E-3
11.49	-4.558972175E-2	-1.985795278E-3	-7.001956291E-3
11.5	2.731188967E-3	-1.571699481E-4	-8.333067266E-3
11.51	5.958131102E-2	6.370973153E-4	-7.187925408E-3
11.52	1.150673415E-1	9.974781212E-4	-7.792248634E-3
11.53	1.713829362E-1	1.559773752E-3	-7.261165520E-3
11.540000000000001	2.257117243E-1	1.051125066E-3	-5.545594429E-3
11.55	2.702736690E-1	1.802610674E-4	-2.669882534E-3
11.56	3.039152703E-1	1.483783643E-3	-1.653874906E-4
11.57	3.267631575E-1	3.420644167E-3	1.738279300E-3
11.58	3.406956693E-1	4.731237838E-3	3.169359552E-3
11.59	3.439575467E-1	5.179469450E-3	4.329701061E-3
11.6	3.380117623E-1	5.042056370E-3	5.626885679E-3
11.61	3.235097995E-1	5.544215762E-3	6.091217238E-3
11.620000000000001	3.033893706E-1	5.232079507E-3	7.409595772E-3
11.63	2.787926164E-1	4.440819194E-3	7.084005625E-3
11.64	2.517201926E-1	3.966080282E-3	6.904561659E-3
11.65	2.284201218E-1	2.604781886E-3	7.600827845E-3
11.66	2.055396077E-1	1.137202516E-3	6.917083162E-3
11.67	1.879812121E-1	4.260302911E-5	7.798541490E-3
11.68	1.715491406E-1	-9.144846084E-4	8.261320510E-3
11.69	1.581361035E-1	-1.418926861E-3	8.458947459E-3
11.700000000000001	1.501258243E-1	-2.643042677E-3	8.915345102E-3
11.71	1.443606950E-1	-2.213816370E-3	7.651265195E-3
11.72	1.386043554E-1	-1.452318049E-3	5.177006968E-3
11.73	1.326631384E-1	-1.030665961E-3	2.485868717E-3
11.74	1.263041436E-1	2.341907859E-5	-6.147175382E-4
11.75	1.198766959E-1	1.153963710E-3	-3.813878235E-3
11.76	1.137286872E-1	2.373835317E-3	-6.765581782E-3
11.77	1.065709056E-1	3.830719045E-3	-8.952515734E-3
11.78	1.014350798E-1	4.362075585E-3	-9.227695585E-3
11.790000000000001	9.577341432E-2	4.731414802E-3	-1.003079821E-2
11.8	9.435345663E-2	5.554438059E-3	-9.474520055E-3
11.81	9.237061211E-2	4.555355726E-3	-1.071875069E-2
11.82	9.105251723E-2	5.214736732E-3	-9.786433525E-3
11.83	8.612078293E-2	4.038873782E-3	-9.111149969E-3
11.84	7.704187309E-2	2.610972121E-3	-8.379970488E-3
11.85	6.302973512E-2	1.117164013E-3	-8.280699395E-3
11.86	4.122434405E-2	8.967927680E-5	-8.026558724E-3
11.870000000000001	6.623427041E-3	-3.075868020E-4	-7.352509727E-3
11.88	-3.632477349E-2	-1.105551994E-3	-6.456203202E-3
11.89	-8.652433525E-2	-1.960747490E-3	-5.411656646E-3
11.9	-1.429591394E-1	-1.782699618E-3	-4.196242197E-3
11.91	-2.002557784E-1	-1.861083099E-3	-1.431589880E-3
11.92	-2.558957469E-1	-1.979915670E-3	1.389890119E-3
11.93	-3.059397562E-1	-3.838304853E-3	5.290500339E-3
11.94	-3.404554809E-1	-3.611894524E-3	7.515573620E-3
11.950000000000001	-3.623242305E-1	-5.116040210E-3	1.069130483E-2
11.96	-3.682582551E-1	-4.295970669E-3	1.169680700E-2
11.97	-3.624931502E-1	-4.613926381E-3	1.212226884E-2
11.98	-3.420539618E-1	-4.627525932E-3	1.192701101E-2
11.99	-3.125133569E-1	-4.536187070E-3	1.114378681E-2
12.0	-2.781132186E-1	-5.021701236E-3	9.764131849E-3
12.01	-2.444054761E-1	-4.828638867E-3	9.762725020E-3
12.02	-2.108866450E-1	-4.163173294E-3	1.030390848E-2
12.030000000000001	-1.812807793E-1	-2.834570410E-3	1.075696061E-2
12.040000000000001	-1.596887876E-1	-8.744422376E-4	1.112372726E-2
12.05	-1.429005751E-1	1.830115668E-4	1.067931048E-2
12.06	-1.331912369E-1	7.337006959E-4	9.901398846E-3
12.07	-1.275060135E-1	1.452572406E-4	9.738992600E-3
12.08	-1.290810099E-1	-4.720953103E-4	6.850126015E-3
12.09	-1.306444829E-1	4.549530227E-4	5.078225099E-3
12.1	-1.337833212E-1	8.033518984E-5	3.514428767E-3
12.11	-1.360838732E-1	-7.340902209E-4	2.567045399E-4
12.120000000000001	-1.371372781E-1	-1.207378245E-3	-3.167206829E-3
12.13	-1.354602242E-1	-1.905561681E-3	-5.623993419E-3
12.14	-1.330533749E-1	-2.048084222E-3	-7.773052238E-3
12.15	-1.279806072E-1	-2.148741854E-3	-8.941818649E-3
12.16	-1.204816920E-1	-2.029358103E-3	-8.965487413E-3
12.17	-1.115715073E-1	-1.373999010E-3	-8.578313700E-3
12.18	-1.004383553E-1	-1.438894716E-3	-8.950843375E-3
12.19	-8.613635125E-2	-2.364182434E-3	-7.288961292E-3
12.200000000000001	-6.825593577E-2	-1.707654397E-3	-6.730799047E-3
12.21	-4.807914911E-2	-1.932629182E-3	-7.922674835E-3
12.22	-2.446837047E-2	-3.216710984E-3	-8.558203522E-3
12.23	4.742634182E-3	-2.494187463E-3	-8.632496461E-3
12.24	3.582985883E-2	-1.209834892E-3	-8.792532444E-3
12.25	6.954833643E-2	-3.690795946E-4	-8.232323436E-3
12.26	1.074869398E-1	2.080754286E-4	-6.725016884E-3
12.27	1.493433943E-1	1.228277770E-3	-5.078586842E-3
12.280000000000001	1.895139276E-1	3.326211753E-3	-4.846213335E-3
12.290000000000001	2.318842566E-1	3.945356681E-3	-2.912033329E-3
12.3	2.669686867E-1	5.327467670E-3	5.465942941E-4
12.31	3.005173844E-1	6.382995074E-3	1.698079761E-3
12.32	3.262509534E-1	4.678315351E-3	3.425026190E-3
12.33	3.434526153E-1	5.240707264E-3	5.172296881E-3
12.34	3.525360789E-1	5.061142506E-3	5.478702323E-3
12.35	3.491154173E-1	4.200794543E-3	5.176852175E-3
12.36	3.345956335E-1	3.585942242E-3	6.013445587E-3
12.370000000000001	3.088432309E-1	2.975737311E-3	6.086405172E-3
12.38	2.771344732E-1	2.060885194E-3	6.136055690E-3
12.39	2.406901434E-1	9.947434164E-4	6.972944652E-3
12.4	1.995998868E-1	4.499441573E-4	7.360088758E-3
12.41	1.636414286E-1	3.424787869E-4	8.747647298E-3
12.42	1.282227963E-1	2.869705924E-4	8.409494162E-3
12.43	1.046041999E-1	-2.718068669E-4	8.423761271E-3
12.44	9.089916305E-2	-6.378662606E-4	7.426771590E-3
12.450000000000001	8.741314544E-2	-1.098569433E-3	6.351991328E-3
12.46	9.336973901E-2	-6.905509161E-4	3.867625297E-3
12.47	1.065373002E-1	-6.147519254E-4	4.043340453E-4
12.48	1.241507265E-1	-2.794941424E-4	-1.910107177E-3
12.49	1.412331418E-1	1.025999083E-4	-4.380052947E-3
12.5	1.554942989E-1	4.119632375E-4	-6.930921739E-3
12.51	1.647311155E-1	1.486307962E-3	-9.327821356E-3
12.52	1.650294171E-1	2.955982267E-3	-1.116875974E-2
12.530000000000001	1.570477026E-1	3.486811377E-3	-1.170481420E-2
12.540000000000001	1.405232079E-1	4.003355495E-3	-1.107402467E-2
12.55	1.168650033E-1	4.151744549E-3	-9.676614782E-3
12.56	8.935234392E-2	4.104080968E-3	-8.345335622E-3
12.57	5.655251845E-2	4.657305255E-3	-8.741377665E-3
12.58	2.309423177E-2	4.044772520E-3	-7.559456771E-3
12.59	-9.777463217E-3	2.682222568E-3	-8.555074462E-3
12.6	-3.990475403E-2	1.569495101E-4	-6.895498601E-3
12.61	-7.105047864E-2	6.159567290E-6	-7.426113383E-3
12.620000000000001	-1.008002732E-1	-1.742763396E-3	-7.511146552E-3
12.63	-1.313804042E-1	-3.004355331E-3	-4.445932336E-3
12.64	-1.618651096E-1	-3.396508447E-3	-1.803220694E-3
12.65	-1.927210774E-1	-3.696986640E-3	4.001638204E-5
12.66	-2.239899677E-1	-3.623597307E-3	2.375456136E-3
12.67	-2.546002797E-1	-2.984831617E-3	5.271688805E-3
12.68	-2.823276021E-1	-3.686626887E-3	7.234425121E-3
12.69	-3.062057107E-1	-3.779793322E-3	9.471511134E-3
12.700000000000001	-3.210323123E-1	-3.671044637E-3	1.040671124E-2
12.71	-3.310678525E-1	-4.885206566E-3	1.071641693E-2
12.72	-3.291588233E-1	-5.318694878E-3	1.040088270E-2
12.73	-3.194052733E-1	-4.457702899E-3	1.024937523E-2
12.74	-3.007609789E-1	-4.936323894E-3	1.098787096E-2
12.75	-2.753907846E-1	-4.230185549E-3	1.062330786E-2
12.76	-2.439233126E-1	-4.109230391E-3	1.047901083E-2
12.77	-2.094853523E-1	-2.838521297E-3	1.085377330E-2
12.780000000000001	-1.769581925E-1	-1.695223996E-3	1.055153392E-2
12.790000000000001	-1.468971723E-1	-5.231404262E-4	1.049033339E-2
12.8	-1.212068407E-1	5.274792591E-4	9.594723762E-3
12.81	-1.010054391E-1	8.726713322E-4	7.732001824E-3
12.82	-8.932377212E-2	6.864167593E-4	5.682890015E-3
12.83	-8.584282477E-2	6.026957342E-4	3.587374723E-3
12.84	-9.078808952E-2	-7.575909786E-4	6.482135334E-4
12.85	-1.009434925E-1	-1.756495933E-3	-1.489500371E-3
12.86	-1.153757498E-1	-1.058187046E-3	-3.544909961E-3
12.870000000000001	-1.294952186E-1	-2.427986524E-3	-5.242361461E-3
12.88	-1.440130360E-1	-3.414846109E-3	-6.672923842E-3
12.89	-1.547257142E-1	-2.887364080E-3	-7.101939920E-3
12.9	-1.587475106E-1	-1.654075056E-3	-7.057652932E-3
12.91	-1.544628235E-1	-8.447139480E-4	-7.136505267E-3
12.92	-1.399907713E-1	-7.352090787E-4	-7.399329027E-3
12.93	-1.183418103E-1	-1.039646268E-3	-7.307054284E-3
12.94	-8.682329637E-2	-1.192016927E-3	-7.216939461E-3
12.950000000000001	-4.778065191E-2	-9.016477581E-4	-8.216449473E-3
12.96	-4.010008921E-3	-7.122917566E-4	-8.564305493E-3
12.97	4.510286337E-2	-3.401300103E-4	-7.499055638E-3
12.98	9.142486586E-2	-1.740216414E-3	-7.589868871E-3
12.99	1.373383012E-1	-1.318488124E-3	-6.891509798E-3
13.0	1.788178690E-1	-1.015294376E-3	-6.319415162E-3
13.01	2.121135465E-1	-8.832524595E-5	-4.647579034E-3
13.02	2.381355517E-1	1.710755306E-3	-3.646296785E-3
13.030000000000001	2.560678970E-1	3.453441888E-3	-2.719763005E-4
13.040000000000001	2.688891989E-1	4.797304430E-3	1.420704554E-3
13.05	2.761090653E-1	5.965103385E-3	2.661993316E-3
13.06	2.811429104E-1	6.527461009E-3	4.506942774E-3
13.07	2.855348102E-1	6.026145467E-3	5.694676023E-3
13.08	2.862419630E-1	5.500304791E-3	4.972877343E-3
13.09	2.838702013E-1	5.126692393E-3	4.680760284E-3
13.1	2.789033009E-1	3.911057909E-3	5.266996058E-3
13.11	2.719524721E-1	2.940198425E-3	6.052399081E-3
13.120000000000001	2.620757011E-1	6.715875190E-4	6.157542272E-3
13.13	2.460976824E-1	-8.948789866E-4	6.902529399E-3
13.14	2.260886650E-1	-1.887567282E-3	7.440009294E-3
13.15	2.017886951E-1	-2.183906305E-3	8.221595746E-3
13.16	1.752613733E-1	-1.845171223E-3	8.740916105E-3
13.17	1.485436871E-1	-1.323047347E-3	8.305220814E-3
13.18	1.231153892E-1	-9.329169632E-4	7.173599014E-3
13.19	1.016270157E-1	6.869007823E-5	4.436185545E-3
13.200000000000001	8.901215510E-2	5.841542660E-5	2.686931029E-3
13.21	8.350190332E-2	8.107145340E-4	-6.000160447E-4
13.22	8.641549482E-2	2.261721438E-3	-3.054413251E-3
13.23	9.566834701E-2	2.322265555E-3	-5.629495946E-3
13.24	1.109835855E-1	2.604492164E-3	-8.138915217E-3
13.25	1.277388253E-1	3.147572463E-3	-9.462470834E-3
13.26	1.421007276E-1	3.564199452E-3	-1.042965550E-2
13.27	1.510652688E-1	2.073504890E-3	-1.043998745E-2
13.280000000000001	1.529816926E-1	2.456148863E-3	-9.894322697E-3
13.290000000000001	1.459538417E-1	2.535414497E-3	-9.013309052E-3
13.3	1.258574485E-1	1.862894214E-3	-8.971875370E-3
13.31	9.646821354E-2	1.818145758E-3	-9.241082492E-3
13.32	5.755137159E-2	2.222675356E-3	-9.008191310E-3
13.33	1.155708161E-2	1.551928641E-3	-8.724437897E-3
13.34	-3.769659224E-2	5.092776477E-4	-8.080600711E-3
13.35	-8.931875405E-2	6.106278498E-5	-6.629502430E-3
13.36	-1.411889961E-1	3.487589049E-4	-5.387942809E-3
13.370000000000001	-1.867056665E-1	-4.237044261E-4	-3.184674032E-3
13.38	-2.244076656E-1	-2.697896163E-3	4.451233468E-4
13.39	-2.550752206E-1	-4.094515190E-3	1.265938162E-3
13.4	-2.777298363E-1	-4.205209781E-3	4.293310178E-3
13.41	-2.920603848E-1	-5.325227508E-3	5.500060540E-3
13.42	-2.981237224E-1	-5.225109758E-3	6.588203125E-3
13.43	-2.984313803E-1	-4.753931288E-3	8.883182801E-3
13.44	-2.929263286E-1	-3.793671658E-3	1.071062071E-2
13.450000000000001	-2.820052061E-1	-3.912633847E-3	1.063628131E-2
13.46	-2.691183458E-1	-4.443344638E-3	9.943362420E-3
13.47	-2.550470644E-1	-4.015642061E-3	9.724480349E-3
13.48	-2.386446917E-1	-3.628142919E-3	9.857014558E-3
13.49	-2.217115281E-1	-1.977965935E-3	9.878490004E-3
13.5	-2.078890132E-1	-2.488232592E-3	1.115882396E-2
13.51	-1.945795013E-1	-1.123420250E-3	1.164930174E-2
13.52	-1.799877473E-1	-1.090547825E-3	1.187433955E-2
13.530000000000001	-1.688286828E-1	-3.630712132E-4	1.158861700E-2
13.540000000000001	-1.569969387E-1	-5.501468249E-4	1.107663155E-2
13.55	-1.461765784E-1	-1.395348346E-4	8.825720731E-3
13.56	-1.365703864E-1	-4.284637542E-4	5.490969657E-3
13.57	-1.272173757E-1	-6.022931268E-4	1.928955633E-3
13.58	-1.187848723E-1	1.808601695E-5	2.923208341E-5
13.59	-1.131722713E-1	-4.381694910E-4	-2.193094687E-3
13.6	-1.098800289E-1	-1.452970686E-3	-4.362562096E-3
13.61	-1.081216238E-1	-2.140683646E-3	-5.723634404E-3
13.620000000000001	-1.087460263E-1	-2.500774316E-3	-6.375395050E-3
13.63	-1.111768362E-1	-2.518705918E-3	-6.481076220E-3
13.64	-1.136993222E-1	-2.477368623E-3	-7.208198836E-3
13.65	-1.159438698E-1	-2.076946724E-3	-7.053102568E-3
13.66	-1.131995667E-1	-1.835083901E-3	-6.931761839E-3
13.67	-1.046394367E-1	-2.303638273E-3	-6.869810602E-3
13.68	-8.790179955E-2	-7.767885427E-4	-6.496195165E-3
13.69	-6.134830076E-2	-8.154944690E-4	-7.356517013E-3
13.700000000000001	-2.809837113E-2	-1.054838876E-3	-7.552628338E-3
13.71	1.716189490E-2	-8.874860110E-4	-8.205609702E-3
13.72	6.866699447E-2	-2.673378005E-4	-8.175971131E-3
13.73	1.226770906E-1	2.094511542E-4	-7.332614307E-3
13.74	1.745989092E-1	1.402923426E-3	-6.475239574E-3
13.75	2.233904199E-1	1.956674978E-3	-4.761663595E-3
13.76	2.659383198E-1	1.822032110E-3	-2.818991414E-3
13.77	2.969313877E-1	2.321893156E-3	-8.286345925E-4
13.780000000000001	3.166137594E-1	3.531589750E-3	1.141034969E-3
13.790000000000001	3.237272474E-1	4.442851513E-3	1.896736379E-3
13.8	3.204601493E-1	4.670493931E-3	3.025651863E-3
13.81	3.069919364E-1	4.710014700E-3	3.522094191E-3
13.82	2.867761324E-1	4.376419693E-3	5.451790640E-3
13.83	2.628573729E-1	4.836177876E-3	5.835862788E-3
13.84	2.362779598E-1	4.391968410E-3	6.479943546E-3
13.85	2.149284610E-1	2.872405166E-3	7.801816224E-3
13.86	1.951858058E-1	1.985308562E-3	7.354369261E-3
13.870000000000001	1.792727835E-1	6.256869779E-4	7.692658579E-3
13.88	1.680708416E-1	-1.986853628E-4	7.868040689E-3
13.89	1.610658730E-1	-9.570610962E-4	7.595448796E-3
13.9	1.565747062E-1	-1.814929817E-3	7.348199614E-3
13.91	1.530234185E-1	-2.299661808E-3	7.234995650E-3
13.92	1.500005117E-1	-2.424511225E-3	6.408147414E-3
13.93	1.469489409E-1	-2.039382409E-3	3.965977659E-3
13.94	1.435886080E-1	-4.027832026E-4	9.700052103E-4
13.950000000000001	1.398445388E-1	2.610120132E-5	-1.635421102E-3
13.96	1.360723276E-1	1.105002897E-3	-3.558498395E-3
13.97	1.295554138E-1	3.379837336E-3	-6.496796350E-3
13.98	1.267240240E-1	3.403487106E-3	-8.330206243E-3
13.99	1.212956011E-1	4.043738671E-3	-8.503491155E-3
14.0	1.163023372E-1	5.122180189E-3	-8.489940200E-3
14.01	1.098856863E-1	4.510466221E-3	-8.801142376E-3
14.02	1.023708574E-1	3.458167254E-3	-8.910486134E-3
14.030000000000001	9.089514987E-2	2.734760190E-3	-9.022143127E-3
14.040000000000001	7.563213641E-2	2.039208574E-3	-8.590284595E-3
14.05	5.658759023E-2	1.197401776E-3	-8.320346997E-3
14.06	3.262380695E-2	3.278172204E-4	-8.463640421E-3
14.07	1.864313059E-3	-6.144325806E-4	-8.359239932E-3
14.08	-3.305707808E-2	-1.479967837E-3	-7.736253720E-3
14.09	-7.152581643E-2	-1.570695359E-3	-6.690508668E-3
14.1	-1.168053263E-1	-1.159752695E-3	-5.309317070E-3
14.11	-1.617484326E-1	-2.297469033E-3	-3.403505476E-3
14.120000000000001	-2.035781591E-1	-2.072411650E-3	-5.659953098E-5
14.13	-2.408979820E-1	-3.226537208E-3	2.053018244E-3
14.14	-2.755465531E-1	-3.243470227E-3	4.791449827E-3
14.15	-3.009785372E-1	-4.083522618E-3	6.246762916E-3
14.16	-3.170217191E-1	-4.930135217E-3	7.948655202E-3
14.17	-3.243528432E-1	-4.535555989E-3	8.787301344E-3
14.18	-3.199463099E-1	-4.513380467E-3	1.015718619E-2
14.19	-3.068857916E-1	-4.824232630E-3	1.060821896E-2
14.200000000000001	-2.863002478E-1	-4.747801160E-3	9.436233257E-3
14.21	-2.598063127E-1	-4.639204927E-3	9.556763443E-3
14.22	-2.284508271E-1	-3.917668133E-3	9.783845630E-3
14.23	-1.964420509E-1	-2.924817478E-3	1.003604799E-2
14.24	-1.681101439E-1	-1.952435958E-3	1.108207740E-2
14.25	-1.442433958E-1	-1.979118997E-3	1.209151776E-2
14.26	-1.277581908E-1	-4.776737566E-4	1.146689900E-2
14.27	-1.189828592E-1	-1.458292318E-4	1.013545839E-2
14.280000000000001	-1.180917190E-1	-1.581273477E-4	8.787484797E-3
14.290000000000001	-1.233274347E-1	-5.048627881E-4	6.752952908E-3
14.3	-1.318341321E-1	-2.164294068E-4	4.741987268E-3
14.31	-1.438628758E-1	-6.906243753E-4	2.081209133E-3
14.32	-1.542936795E-1	-1.145052406E-3	1.363563225E-4
14.33	-1.608984258E-1	-1.835780308E-3	-2.477333189E-3
14.34	-1.632862645E-1	-2.038504839E-3	-5.295331169E-3
14.35	-1.600292129E-1	-1.487623018E-3	-6.623972960E-3
14.36	-1.509278688E-1	-2.178843135E-3	-6.576219387E-3
14.370000000000001	-1.372196453E-1	-1.609147863E-3	-7.730235944E-3
14.38	-1.174613208E-1	-2.750812200E-3	-7.167065184E-3
14.39	-9.660554914E-2	-2.353953750E-3	-6.767941337E-3
14.4	-7.210872197E-2	-1.391861646E-3	-7.505296806E-3
14.41	-4.790522026E-2	-3.195891480E-3	-6.788305608E-3
14.42	-2.167588164E-2	-2.443555271E-3	-6.684318601E-3
14.43	3.954891183E-3	-2.178677453E-3	-7.845697254E-3
14.44	3.111301862E-2	-6.190660881E-4	-8.614073378E-3
14.450000000000001	5.882497847E-2	-7.203273461E-4	-9.221157163E-3
14.46	8.954785813E-2	2.217413267E-4	-8.236753157E-3
14.47	1.221868182E-1	1.056332679E-3	-6.153094431E-3
14.48	1.558761735E-1	1.490723721E-3	-5.098154317E-3
14.49	1.903275690E-1	2.737527761E-3	-4.208508293E-3
14.5	2.251644297E-1	4.436378354E-3	-1.797900053E-3
14.51	2.577865547E-1	4.777559576E-3	7.057925421E-4
14.52	2.839452898E-1	5.957610545E-3	2.038328040E-3
14.530000000000001	3.026397303E-1	5.449908022E-3	2.574002634E-3
14.540000000000001	3.134594214E-1	4.397870011E-3	3.692772905E-3
14.55	3.147942947E-1	4.081093621E-3	3.406062218E-3
14.56	3.068005635E-1	3.580658187E-3	4.632135066E-3
14.57	2.882695368E-1	2.250160869E-3	4.860264090E-3
14.58	2.646094872E-1	1.868306639E-3	5.754584438E-3
14.59	2.362418277E-1	1.681587953E-3	6.808007636E-3
14.6	2.063371630E-1	1.619156228E-4	7.001683240E-3
14.61	1.778836005E-1	-8.408114949E-4	8.066981145E-3
14.620000000000001	1.530484699E-1	-4.017943768E-4	8.740759984E-3
14.63	1.324057976E-1	-5.368143972E-4	8.385492140E-3
14.64	1.172828361E-1	-8.412342948E-4	7.735821228E-3
14.65	1.106358405E-1	-3.333101955E-4	6.357130501E-3
14.66	1.113879283E-1	2.306670119E-4	4.670248355E-3
14.67	1.170415199E-1	5.226021978E-4	3.082004530E-3
14.68	1.247174052E-1	9.006818265E-4	-1.079656629E-3
14.69	1.379402952E-1	9.499312286E-4	-2.765995024E-3
14.700000000000001	1.484048692E-1	1.189568643E-3	-6.340103147E-3
14.71	1.604985548E-1	1.602090200E-3	-7.210687963E-3
14.72	1.636352988E-1	2.602784470E-3	-8.269428262E-3
14.73	1.638396137E-1	2.482496807E-3	-8.597949167E-3
14.74	1.557549035E-1	3.648295629E-3	-8.204021329E-3
14.75	1.415093441E-1	3.836796567E-3	-8.933794356E-3
14.76	1.193407864E-1	2.103585037E-3	-7.912110371E-3
14.77	9.057224388E-2	2.894790470E-3	-8.867358055E-3
14.780000000000001	5.827123064E-2	3.432444053E-3	-8.734762533E-3
14.790000000000001	2.078725747E-2	2.860636726E-3	-8.625429522E-3
14.8	-1.698853926E-2	1.291018389E-3	-7.907995997E-3
14.81	-5.527888230E-2	7.000270549E-4	-7.655833854E-3
14.82	-9.359961556E-2	5.952412202E-5	-7.182347514E-3
14.83	-1.290591677E-1	-1.946324925E-3	-5.583539834E-3
14.84	-1.580618556E-1	-2.710849192E-3	-4.554945758E-3
14.85	-1.873671538E-1	-2.849570069E-3	-1.778250120E-3
14.86	-2.092207836E-1	-3.499475817E-3	8.195358834E-4
14.870000000000001	-2.283549349E-1	-4.784815698E-3	2.457311169E-3
14.88	-2.437932413E-1	-4.119979795E-3	5.102305380E-3
14.89	-2.580946798E-1	-3.479539809E-3	6.233250019E-3
14.9	-2.679350370E-1	-3.121466732E-3	7.272834538E-3
14.91	-2.746217505E-1	-3.624931879E-3	8.307338237E-3
14.92	-2.790312995E-1	-4.079522882E-3	8.909782655E-3
14.93	-2.786244354E-1	-4.038925469E-3	8.952219795E-3
14.94	-2.731116284E-1	-3.991464489E-3	9.057669665E-3
14.950000000000001	-2.616432874E-1	-3.775837971E-3	9.472332422E-3
14.96	-2.452120119E-1	-3.671010932E-3	9.973390619E-3
14.97	-2.238327417E-1	-1.855685124E-3	1.101550324E-2
14.98	-1.986164593E-1	-1.352330742E-3	1.073280465E-2
14.99	-1.738727854E-1	-1.350439290E-3	1.020865026E-2
15.0	-1.480111566E-1	6.985256891E-4	1.049652163E-2
15.01	-1.255052350E-1	1.059016419E-4	9.175817263E-3
15.02	-1.101320350E-1	-1.976163354E-4	7.670382560E-3
15.030000000000001	-1.025076565E-1	2.777763159E-4	6.006486724E-3
15.040000000000001	-1.008220152E-1	-4.290520183E-4	3.509171089E-3
15.05	-1.065793588E-1	-6.583733849E-4	3.932675088E-4
15.06	-1.184654460E-1	-1.207366625E-3	-1.649322745E-3
15.07	-1.322339827E-1	-2.266671241E-3	-3.018886126E-3
15.08	-1.460638678E-1	-3.297055661E-3	-4.377888038E-3
15.09	-1.582942211E-1	-3.687075975E-3	-5.097391759E-3
15.1	-1.655743884E-1	-1.853232759E-3	-5.444530954E-3
15.11	-1.626401482E-1	-1.487738336E-3	-6.144447572E-3
15.120000000000001	-1.519121579E-1	-1.826569076E-3	-5.805646649E-3
15.13	-1.316803112E-1	-1.441687272E-3	-6.629206606E-3
15.14	-1.025916623E-1	-1.230729322E-3	-6.310324041E-3
15.15	-6.519904871E-2	-3.211535412E-4	-7.423105464E-3
15.16	-2.363968375E-2	-4.163596730E-4	-7.679601926E-3
15.17	2.029301124E-2	-6.089060000E-4	-8.957042366E-3
15.18	6.500981788E-2	-5.010084583E-4	-8.806815103E-3
15.19	1.072781164E-1	2.232071963E-4	-7.366356136E-3
15.200000000000001	1.453258221E-1	2.609820359E-4	-7.276628998E-3
15.21	1.784850859E-1	1.016226605E-3	-5.914315280E-3
15.22	2.069102687E-1	2.280424673E-3	-3.988257436E-3
15.23	2.300825112E-1	2.777556199E-3	-3.191203741E-3
15.24	2.472939581E-1	2.745955078E-3	-1.099261745E-3
15.25	2.571493330E-1	3.279396021E-3	8.635201533E-4
15.26	2.630648606E-1	5.125695060E-3	2.264558545E-3
15.27	2.654482857E-1	5.350278733E-3	3.246809871E-3
15.280000000000001	2.650368671E-1	4.648379720E-3	2.216106776E-3
15.290000000000001	2.606767250E-1	4.175378432E-3	4.720159205E-3
15.3	2.520938021E-1	3.680271424E-3	6.020036942E-3
15.31	2.429197986E-1	3.764112009E-3	5.589998197E-3
15.32	2.320625643E-1	2.411009428E-3	5.891148552E-3
15.33	2.198468133E-1	1.084485655E-3	7.079759223E-3
15.34	2.068451643E-1	-1.613501524E-4	7.854329485E-3
15.35	1.925421284E-1	-9.868110750E-4	8.416070866E-3
15.36	1.782125572E-1	-1.124324208E-3	8.526917494E-3
15.370000000000001	1.644426535E-1	-1.005528997E-3	8.026658008E-3
15.38	1.511412453E-1	-1.326914231E-3	6.859436833E-3
15.39	1.392020442E-1	-1.893073343E-3	4.925051899E-3
15.4	1.303950167E-1	-2.873273773E-4	2.597557508E-3
15.41	1.233079939E-1	1.374255030E-3	-2.299519117E-4
15.42	1.184737673E-1	2.228944550E-3	-2.690225961E-3
15.43	1.179030411E-1	2.585825247E-3	-4.383825719E-3
15.44	1.202472283E-1	3.222485681E-3	-5.884222356E-3
15.450000000000001	1.254635819E-1	3.200714029E-3	-7.091354925E-3
15.46	1.307321189E-1	4.209484927E-3	-7.807421053E-3
15.47	1.349330532E-1	4.056315304E-3	-8.478860747E-3
15.48	1.365079556E-1	3.300631703E-3	-9.245467769E-3
15.49	1.339423683E-1	2.449009787E-3	-8.718460850E-3
15.5	1.239734857E-1	2.441578143E-3	-8.681022382E-3
15.51	1.043029242E-1	1.967206168E-3	-8.826326161E-3
15.52	7.777340475E-2	1.661918200E-3	-8.438386545E-3
15.530000000000001	4.281449677E-2	1.384142933E-3	-7.570656636E-3
15.540000000000001	-1.303703516E-4	1.696649420E-5	-7.546724722E-3
15.55	-4.658761108E-2	-1.402203539E-4	-8.816172937E-3
15.56	-9.831608476E-2	4.643567656E-4	-6.331451015E-3
15.57	-1.483095243E-1	-1.373187656E-3	-4.482570598E-3
15.58	-1.912830903E-1	-1.227338741E-3	-3.342236237E-3
15.59	-2.267128156E-1	-3.357737462E-3	-1.452020971E-3
15.6	-2.549620906E-1	-2.739258176E-3	1.185474961E-3
15.610000000000001	-2.722092822E-1	-3.394751284E-3	3.676229121E-3
15.620000000000001	-2.793163794E-1	-3.214426895E-3	5.202941521E-3
15.63	-2.798167995E-1	-3.975748430E-3	5.540752434E-3
15.64	-2.726689265E-1	-4.280629717E-3	6.648009614E-3
15.65	-2.602836810E-1	-4.343029220E-3	8.022949109E-3
15.66	-2.447011927E-1	-4.499288234E-3	8.370014764E-3
15.67	-2.298367912E-1	-3.630542476E-3	8.636269309E-3
15.68	-2.166759854E-1	-3.250189219E-3	9.201536294E-3
15.69	-2.042984494E-1	-3.304777327E-3	1.003463526E-2
15.700000000000001	-1.934638111E-1	-2.231281285E-3	1.062006494E-2
15.71	-1.847154862E-1	-5.794656731E-4	1.080109385E-2
15.72	-1.776419046E-1	-1.337250877E-3	1.107745332E-2
15.73	-1.715830488E-1	-1.255813806E-4	1.077165907E-2
15.74	-1.669535445E-1	-1.148369114E-3	9.743257197E-3
15.75	-1.602962180E-1	-5.153751840E-4	9.183654531E-3
15.76	-1.522335916E-1	8.122288765E-4	6.713207081E-3
15.77	-1.464391778E-1	-2.829063548E-4	4.480725065E-3
15.780000000000001	-1.403944750E-1	-1.411945775E-3	1.924143267E-3
15.790000000000001	-1.358215470E-1	-1.576530473E-3	-3.305379823E-4
15.8	-1.325728723E-1	-1.970004373E-3	-2.178879375E-3
15.81	-1.296138903E-1	-3.191375820E-3	-3.678967677E-3
15.82	-1.279700277E-1	-3.703923630E-3	-4.475442659E-3
15.83	-1.271377690E-1	-3.290667234E-3	-4.963213540E-3
15.84	-1.252687245E-1	-2.703057791E-3	-5.842377560E-3
15.85	-1.214013179E-1	-2.037347648E-3	-6.773648108E-3
15.860000000000001	-1.126141378E-1	-2.092545969E-3	-5.218287317E-3
15.870000000000001	-1.015487479E-1	-3.015846709E-3	-7.282404272E-3
15.88	-8.256537272E-2	-2.710235571E-3	-7.794470020E-3
15.89	-5.625841347E-2	-1.381689747E-3	-7.709279934E-3
15.9	-2.773375897E-2	-6.469290955E-4	-7.882927283E-3
15.91	7.876178302E-3	-4.873943619E-4	-8.240045260E-3
15.92	4.934643461E-2	-3.280590207E-4	-8.120937510E-3
15.93	9.080162176E-2	3.006994123E-4	-7.318696438E-3
15.94	1.329296220E-1	1.409105002E-3	-6.474096135E-3
15.950000000000001	1.757676133E-1	2.677252678E-3	-5.341150389E-3
15.96	2.147185143E-1	3.316267712E-3	-3.583526110E-3
15.97	2.450897453E-1	3.437149663E-3	-2.192316526E-3
15.98	2.679248362E-1	4.138095449E-3	-8.412534659E-4
15.99	2.848006617E-1	4.614542312E-3	8.515504721E-4
16.0	2.920654243E-1	4.473867815E-3	1.986981466E-3
16.01	2.903619721E-1	4.246094549E-3	2.823050693E-3
16.02	2.800448729E-1	3.923507829E-3	2.354665431E-3
16.03	2.616565975E-1	2.734124443E-3	3.587654228E-3
16.04	2.399475883E-1	2.416809775E-3	4.458379203E-3
16.05	2.170543109E-1	2.529888336E-3	6.094645896E-3
16.06	1.941675774E-1	2.070564962E-3	7.042001245E-3
16.07	1.746945621E-1	1.405945871E-3	7.724457401E-3
16.080000000000002	1.595980641E-1	1.356115109E-3	8.125867343E-3
16.09	1.489817700E-1	3.411923873E-4	7.679194651E-3
16.1	1.431555840E-1	-6.803074702E-4	7.326040098E-3
16.11	1.427644164E-1	-5.252229480E-4	7.158029806E-3
16.12	1.461678869E-1	-8.597439722E-4	5.153286928E-3
16.13	1.512161029E-1	-5.848988395E-4	3.865895817E-3
16.14	1.580474031E-1	-1.315542351E-3	1.488596087E-3
16.15	1.622135575E-1	-1.024579813E-3	-1.211752192E-3
16.16	1.650046256E-1	1.016420133E-3	-2.858991339E-3
16.17	1.628477289E-1	1.516856303E-3	-4.884390203E-3
16.18	1.580248898E-1	2.062762996E-3	-6.010902729E-3
16.19	1.490570165E-1	2.705114252E-3	-6.783268370E-3
16.2	1.368848459E-1	4.647164469E-3	-7.362497926E-3
16.21	1.234655875E-1	4.539800846E-3	-6.970705829E-3
16.22	1.074211955E-1	4.106817251E-3	-7.358924187E-3
16.23	9.042048767E-2	3.862001587E-3	-8.424100715E-3
16.240000000000002	7.184407577E-2	3.216019581E-3	-9.105001150E-3
16.25	5.275516569E-2	2.182105622E-3	-8.839239357E-3
16.26	3.227215547E-2	1.230243559E-3	-8.097223843E-3
16.27	7.121317888E-3	6.035420837E-4	-8.101262347E-3
16.28	-2.271810535E-2	-2.032693234E-4	-8.657935459E-3
16.29	-5.325893727E-2	-1.430623945E-3	-7.300793248E-3
16.3	-8.637085560E-2	-1.145977550E-3	-6.385353528E-3
16.31	-1.258657638E-1	-2.750289254E-3	-3.703177455E-3
16.32	-1.629188346E-1	-2.262151937E-3	-1.262430517E-3
16.330000000000002	-2.009129869E-1	-2.450033674E-3	-2.407882851E-4
16.34	-2.332695736E-1	-2.750466232E-3	2.461299582E-3
16.35	-2.595480166E-1	-2.499834760E-3	3.628796024E-3
16.36	-2.787029389E-1	-2.619687977E-3	5.929871345E-3
16.37	-2.897443978E-1	-2.954325305E-3	6.404985172E-3
16.38	-2.908832570E-1	-3.495989771E-3	7.528655371E-3
16.39	-2.820850677E-1	-3.836119102E-3	8.455394253E-3
16.4	-2.671809383E-1	-4.196738685E-3	8.134427934E-3
16.41	-2.469820582E-1	-4.119274832E-3	8.470639866E-3
16.42	-2.227995595E-1	-3.520063647E-3	9.331783764E-3
16.43	-1.970889557E-1	-3.710455847E-3	9.380447807E-3
16.44	-1.744616202E-1	-2.305017970E-3	9.860171191E-3
16.45	-1.568899019E-1	-8.915916991E-4	1.025453008E-2
16.46	-1.402983312E-1	-8.263682985E-4	1.095044071E-2
16.47	-1.315241502E-1	-1.878156762E-4	9.522958430E-3
16.48	-1.292018273E-1	8.298128678E-4	8.734343452E-3
16.490000000000002	-1.307855921E-1	-7.874563169E-4	7.734155646E-3
16.5	-1.369750759E-1	-1.264255252E-3	5.934811427E-3
16.51	-1.448740286E-1	-1.458433388E-3	3.981143141E-3
16.52	-1.532497098E-1	-1.809168136E-3	2.131797182E-3
16.53	-1.611718406E-1	-2.382977062E-3	6.938624933E-5
16.54	-1.662653334E-1	-2.389134463E-3	-1.532177801E-3
16.55	-1.682918117E-1	-2.935608521E-3	-2.801471751E-3
16.56	-1.652065298E-1	-2.981013326E-3	-4.174492354E-3
16.57	-1.558107787E-1	-8.103897287E-4	-5.319569351E-3
16.580000000000002	-1.405701191E-1	-1.117935180E-3	-5.724481159E-3
16.59	-1.228350856E-1	-1.445508521E-3	-5.525539545E-3
16.6	-9.700775876E-2	-1.774207334E-3	-6.707827268E-3
16.61	-7.198502352E-2	-1.881534213E-3	-6.720166099E-3
16.62	-4.156249927E-2	-1.304470698E-3	-7.643465368E-3
16.63	-7.867865610E-3	-4.319873389E-4	-8.492625676E-3
16.64	2.461036129E-2	-1.162002712E-3	-8.919359590E-3
16.65	5.688305846E-2	-1.065304361E-3	-8.473653988E-3
16.66	8.747085743E-2	-7.101216955E-4	-8.052832092E-3
16.67	1.172605204E-1	1.178276998E-4	-7.225926464E-3
16.68	1.457838952E-1	8.997570651E-4	-6.028325930E-3
16.69	1.716005902E-1	1.669086507E-3	-4.451550481E-3
16.7	1.949253594E-1	2.953675225E-3	-2.810594286E-3
16.71	2.161887681E-1	3.700943593E-3	-1.335353326E-3
16.72	2.361701908E-1	4.241456055E-3	3.680351199E-4
16.73	2.501383680E-1	4.963637070E-3	7.811183276E-4
16.740000000000002	2.628334922E-1	3.936288382E-3	2.393171109E-3
16.75	2.694390830E-1	4.189672585E-3	3.182978937E-3
16.76	2.701913295E-1	3.944181245E-3	3.636135188E-3
16.77	2.656164481E-1	3.136294385E-3	3.568025263E-3
16.78	2.529025309E-1	2.249296382E-3	5.159869608E-3
16.79	2.374056456E-1	9.616329725E-4	6.825735365E-3
16.8	2.161022931E-1	2.766024453E-4	6.584947564E-3
16.81	1.942239767E-1	-1.266449737E-4	6.398962692E-3
16.82	1.714156939E-1	-4.415464629E-4	6.990061216E-3
16.830000000000002	1.498101112E-1	-1.113488476E-3	7.629074308E-3
16.84	1.335266381E-1	-1.052669153E-3	7.635195427E-3
16.85	1.224832053E-1	5.798560041E-4	7.080442194E-3
16.86	1.177161344E-1	3.866894409E-4	6.104746783E-3
16.87	1.185741617E-1	-1.648313801E-4	4.230828913E-3
16.88	1.276900782E-1	1.875264341E-3	8.085723487E-4
16.89	1.382974323E-1	2.310358001E-3	-6.835390979E-4
16.9	1.519117015E-1	1.638138528E-3	-3.162866879E-3
16.91	1.631167788E-1	2.667472618E-3	-5.133529296E-3
16.92	1.702412619E-1	2.676652553E-3	-6.105281210E-3
16.93	1.724526737E-1	1.987290537E-3	-6.338883227E-3
16.94	1.669900434E-1	2.514240962E-3	-6.164200946E-3
16.95	1.551239218E-1	2.803324215E-3	-6.664084169E-3
16.96	1.342556503E-1	1.980280266E-3	-7.993178516E-3
16.97	1.067751928E-1	2.516128716E-3	-8.010243526E-3
16.98	7.489356528E-2	2.316678923E-3	-8.176904985E-3
16.990000000000002	3.790830741E-2	2.407637054E-3	-8.163788716E-3
17.0	2.031124591E-3	3.582573732E-3	-8.264116613E-3
17.01	-3.659118772E-2	8.594898935E-4	-6.680382452E-3
17.02	-7.312154094E-2	-5.889630642E-4	-6.152940554E-3
17.03	-1.075909273E-1	-5.627945460E-4	-6.700308969E-3
17.04	-1.367640734E-1	-1.939938445E-3	-4.691936736E-3
17.05	-1.635181602E-1	-2.759197458E-3	-3.404011154E-3
17.06	-1.863631097E-1	-3.283529233E-3	-1.383381791E-3
17.07	-2.051887754E-1	-3.769179745E-3	8.936032543E-4
17.080000000000002	-2.210622849E-1	-4.099384512E-3	2.702988505E-3
17.09	-2.332305742E-1	-4.070910287E-3	4.255897088E-3
17.1	-2.421952660E-1	-4.031322022E-3	5.705351882E-3
17.11	-2.470381723E-1	-3.619943397E-3	6.229808808E-3
17.12	-2.487939743E-1	-2.456763638E-3	6.214156041E-3
17.13	-2.484207494E-1	-2.290530212E-3	8.170717751E-3
17.14	-2.428271106E-1	-3.061102838E-3	9.109769133E-3
17.150000000000002	-2.329233812E-1	-2.460391025E-3	8.224340113E-3
17.16	-2.207432706E-1	-2.157200144E-3	9.242770391E-3
17.17	-2.082981675E-1	-1.727657424E-3	9.995550958E-3
17.18	-1.927865311E-1	-1.293045609E-3	1.038513731E-2
17.19	-1.776349215E-1	-4.970787832E-4	1.103533395E-2
17.2	-1.642041478E-1	-2.099775232E-4	1.061623059E-2
17.21	-1.518546135E-1	-7.911016857E-4	9.770957281E-3
17.22	-1.412002482E-1	-1.036009841E-3	8.138529565E-3
17.23	-1.330959785E-1	-1.043268878E-3	5.868700744E-3
17.240000000000002	-1.290759199E-1	-1.360360447E-3	3.776247045E-3
17.25	-1.281076850E-1	-1.505079366E-3	2.371656867E-3
17.26	-1.301391460E-1	-1.569690118E-3	8.451998430E-4
17.27	-1.353041731E-1	-1.705127014E-3	-1.644860744E-3
17.28	-1.419396175E-1	-2.402957890E-3	-2.863624000E-3
17.29	-1.498362418E-1	-3.245540516E-3	-2.634503095E-3
17.3	-1.544356989E-1	-2.147229711E-3	-3.617433874E-3
17.31	-1.536785209E-1	-2.497997659E-3	-3.703674835E-3
17.32	-1.490141221E-1	-3.149630336E-3	-4.459707809E-3
17.330000000000002	-1.354426400E-1	-2.244036640E-3	-5.658349508E-3
17.34	-1.158590783E-1	-1.126776271E-3	-6.364652925E-3
17.35	-8.713696886E-2	-1.048933289E-3	-7.256503360E-3
17.36	-5.379491337E-2	-9.058846731E-4	-7.314754242E-3
17.37	-1.414676065E-2	-5.006555894E-4	-7.537774403E-3
17.38	3.022055103E-2	-9.636320265E-5	-7.758779724E-3
17.39	7.622623954E-2	3.994227526E-4	-6.995439551E-3
17.400000000000002	1.182934202E-1	1.104532352E-3	-5.948753079E-3
17.41	1.572845120E-1	6.159620333E-4	-5.935365959E-3
17.42	1.888383148E-1	9.253727886E-4	-5.027962674E-3
17.43	2.120325302E-1	1.831212675E-3	-3.365180220E-3
17.44	2.304913960E-1	2.027019079E-3	-2.918049014E-3
17.45	2.400185896E-1	2.469748308E-3	-9.588759818E-4
17.46	2.424062357E-1	4.067957591E-3	7.199447632E-6
17.47	2.412158982E-1	3.578642355E-3	2.018927228E-3
17.48	2.369032865E-1	4.013295454E-3	2.555406593E-3
17.490000000000002	2.297891709E-1	4.035413202E-3	2.487907272E-3
17.5	2.224306844E-1	3.027258587E-3	3.633985929E-3
17.51	2.154165149E-1	2.623379020E-3	4.765288007E-3
17.52	2.082685559E-1	2.453782942E-3	5.098523282E-3
17.53	2.021402615E-1	1.695099572E-3	5.686524744E-3
17.54	1.964319773E-1	7.142531017E-4	6.725622907E-3
17.55	1.889376145E-1	4.200900353E-5	7.226244133E-3
17.56	1.807493904E-1	-1.040072724E-3	7.043196380E-3
17.57	1.725670513E-1	-1.437327207E-3	7.629671802E-3
17.580000000000002	1.646533411E-1	-1.681189869E-3	6.759146907E-3
17.59	1.564160271E-1	-1.764944959E-3	5.193293286E-3
17.6	1.489565803E-1	-1.515161196E-3	4.255624445E-3
17.61	1.429322496E-1	-3.741591199E-4	1.542246103E-3
17.62	1.389337811E-1	1.303143419E-3	-3.040076543E-4
17.63	1.382689743E-1	2.700039772E-3	-1.320297378E-3
17.64	1.385962632E-1	3.735438702E-3	-3.152080233E-3
17.650000000000002	1.398276000E-1	3.682930297E-3	-4.816434710E-3
17.66	1.407197462E-1	3.808524699E-3	-5.368434687E-3
17.67	1.414267634E-1	3.668653417E-3	-5.682799580E-3
17.68	1.396544407E-1	3.425200078E-3	-6.368526227E-3
17.69	1.327513916E-1	2.994834709E-3	-7.258468788E-3
17.7	1.206609387E-1	1.877975218E-3	-7.964438474E-3
17.71	1.023545994E-1	1.648963233E-3	-8.577802490E-3
17.72	7.901103959E-2	1.810664785E-3	-8.442737961E-3
17.73	4.837691466E-2	1.099984636E-3	-8.708161200E-3
17.740000000000002	1.248954916E-2	6.467702793E-4	-8.853001155E-3
17.75	-2.509422319E-2	-3.257214527E-4	-7.685617773E-3
17.76	-6.785962132E-2	-1.240135239E-3	-6.238231054E-3
17.77	-1.089471358E-1	-1.104339292E-3	-5.603884151E-3
17.78	-1.479933498E-1	-1.475061515E-3	-3.803827314E-3
17.79	-1.842311913E-1	-1.663812102E-3	-2.257608232E-3
17.8	-2.134732594E-1	-2.622768843E-3	4.141150464E-5
17.81	-2.347840640E-1	-3.491729699E-3	1.569644468E-3
17.82	-2.488715387E-1	-3.893131503E-3	2.587351341E-3
17.830000000000002	-2.566526193E-1	-4.307698729E-3	4.209024228E-3
17.84	-2.564974816E-1	-4.138965848E-3	5.557328542E-3
17.85	-2.499831806E-1	-3.414979462E-3	5.688038325E-3
17.86	-2.386192720E-1	-4.318156609E-3	6.183045406E-3
17.87	-2.234803620E-1	-4.136401100E-3	7.383751600E-3
17.88	-2.095780851E-1	-3.047202559E-3	7.725283530E-3
17.89	-1.920793121E-1	-3.606153434E-3	8.313990105E-3
17.900000000000002	-1.801350640E-1	-2.627985875E-3	7.742639216E-3
17.91	-1.694015773E-1	-9.983283010E-4	9.378728226E-3
17.92	-1.620156976E-1	-1.029107479E-3	9.392194936E-3
17.93	-1.582857133E-1	-1.245511469E-3	9.961155641E-3
17.94	-1.572639492E-1	-6.071978751E-4	9.582894268E-3
17.95	-1.586627570E-1	-4.937380465E-4	8.594413759E-3
17.96	-1.608857453E-1	-9.358251749E-4	7.570025596E-3
17.97	-1.629528147E-1	-1.280201952E-3	6.202365600E-3
17.98	-1.639799542E-1	-1.775999562E-3	4.151715502E-3
17.990000000000002	-1.634943127E-1	-2.101051476E-3	1.911035601E-3
18.0	-1.613425963E-1	-1.684093330E-3	4.688188718E-4
18.01	-1.565305211E-1	-8.902512006E-4	-9.171732995E-4
18.02	-1.502536929E-1	-1.960032086E-3	-2.543092895E-3
18.03	-1.423197040E-1	-2.601680139E-3	-3.040836955E-3
18.04	-1.316021038E-1	-1.658659012E-3	-4.565354974E-3
18.05	-1.224779056E-1	-2.654800514E-3	-3.852037756E-3
18.06	-1.099825217E-1	-2.412891455E-3	-5.778487396E-3
18.07	-9.604900188E-2	-1.745795508E-3	-6.123008922E-3
18.080000000000002	-7.887357928E-2	-2.348132534E-3	-7.300696789E-3
18.09	-5.939434796E-2	-1.415432930E-3	-7.622521605E-3
18.1	-3.479674968E-2	-5.181914471E-4	-8.135514387E-3
18.11	-4.941036979E-3	-1.046595879E-4	-8.182801289E-3
18.12	2.873123550E-2	4.306975354E-4	-7.464925938E-3
18.13	6.308699017E-2	3.698211096E-4	-7.378312004E-3
18.14	1.003143334E-1	8.229863147E-4	-6.759170633E-3
18.150000000000002	1.398738862E-1	2.061308178E-3	-5.959332166E-3
18.16	1.747017097E-1	2.552766192E-3	-3.870623965E-3
18.17	2.088871534E-1	2.856807613E-3	-2.477109059E-3
18.18	2.358459656E-1	1.972661689E-3	-1.273008826E-3
18.19	2.539602741E-1	3.800528480E-3	-8.785948321E-4
18.2	2.627865149E-1	3.225358625E-3	1.165825448E-4
18.21	2.625171926E-1	3.159236916E-3	1.984092832E-3
18.22	2.566392734E-1	3.358160909E-3	1.916555094E-3
18.23	2.442870702E-1	2.163877751E-3	3.221830813E-3
18.240000000000002	2.286050764E-1	1.055399666E-3	4.039179746E-3
18.25	2.104729998E-1	1.433040863E-3	5.059328031E-3
18.26	1.914744803E-1	1.972080994E-3	6.365712546E-3
18.27	1.733841514E-1	1.286245217E-3	7.189665547E-3
18.28	1.600907392E-1	5.114799419E-5	7.650968304E-3
18.29	1.509055227E-1	-4.322587893E-4	8.030967666E-3
18.3	1.459265832E-1	-6.988019480E-5	8.531770803E-3
18.31	1.451817900E-1	-2.606032009E-4	7.408693642E-3
18.32	1.469621837E-1	-5.038718521E-4	6.667798456E-3
18.330000000000002	1.519636942E-1	-1.436630587E-3	4.778619441E-3
18.34	1.583577703E-1	-1.009551290E-4	2.622350321E-3
18.35	1.652742475E-1	6.936591770E-4	2.589943853E-4
18.36	1.694482394E-1	6.419932155E-4	-7.180900523E-4
18.37	1.712375667E-1	1.777678802E-3	-3.045883699E-3
18.38	1.701400607E-1	2.519397326E-3	-4.657602290E-3
18.39	1.655637910E-1	2.926164373E-3	-5.555002798E-3
18.400000000000002	1.571007244E-1	3.621984874E-3	-7.314307017E-3
18.41	1.450649883E-1	3.868416496E-3	-7.745143736E-3
18.42	1.291049036E-1	3.637010420E-3	-6.173363998E-3
18.43	1.105187641E-1	4.052735930E-3	-6.355868267E-3
18.44	8.685702006E-2	3.166945330E-3	-7.216075948E-3
18.45	6.237540341E-2	1.302838001E-3	-8.030284031E-3
18.46	3.694262372E-2	1.940759331E-3	-7.917978249E-3
18.47	8.676442572E-3	-9.828602424E-6	-7.329558211E-3
18.48	-1.969290392E-2	3.714703520E-4	-7.340864507E-3
18.490000000000002	-4.966698680E-2	-1.729102320E-3	-7.140037091E-3
18.5	-8.014859939E-2	-2.450811753E-3	-6.865908665E-3
18.51	-1.105630731E-1	-1.914990857E-3	-4.697489315E-3
18.52	-1.380919937E-1	-1.634639781E-3	-2.786025244E-3
18.53	-1.654272087E-1	-1.701673277E-3	-7.597073632E-4
18.54	-1.914781597E-1	-1.963925349E-3	7.921602990E-4
18.55	-2.132877096E-1	-2.854545013E-3	1.118664917E-3
18.56	-2.309323692E-1	-3.460168611E-3	2.277334993E-3
18.57	-2.439353262E-1	-3.534395356E-3	4.172041820E-3
18.580000000000002	-2.513662780E-1	-3.908560832E-3	4.919439465E-3
18.59	-2.529735685E-1	-3.768598933E-3	6.606104399E-3
18.6	-2.482135628E-1	-3.573147063E-3	7.346500465E-3
18.61	-2.377020310E-1	-3.767292095E-3	8.619618346E-3
18.62	-2.227069930E-1	-3.607980602E-3	7.564259661E-3
18.63	-2.033099817E-1	-3.867224554E-3	8.014627131E-3
18.64	-1.833928464E-1	-2.200475186E-3	9.597478005E-3
18.650000000000002	-1.650738476E-1	-1.007041834E-3	1.108477642E-2
18.66	-1.484426932E-1	-7.966026136E-4	1.011345706E-2
18.67	-1.380330215E-1	-1.009390859E-3	9.093965836E-3
18.68	-1.321539361E-1	-8.157537039E-4	8.942240316E-3
18.69	-1.308354873E-1	-1.214219889E-3	7.489227493E-3
18.7	-1.355923821E-1	-9.506418642E-4	5.892474633E-3
18.71	-1.437134903E-1	-9.376908934E-4	5.014622220E-3
18.72	-1.544013682E-1	-1.977230198E-3	3.561078931E-3
18.73	-1.662299354E-1	-2.328564266E-3	1.272704236E-3
18.740000000000002	-1.744564290E-1	-2.418343490E-3	2.933697085E-4
18.75	-1.790715702E-1	-3.122342079E-3	-1.561301177E-3
18.76	-1.786653776E-1	-2.352070330E-3	-2.740317165E-3
18.77	-1.716269014E-1	-2.840251322E-3	-3.441863127E-3
18.78	-1.587376045E-1	-2.967963318E-3	-4.276327459E-3
18.79	-1.385116298E-1	-1.760031525E-3	-4.544846804E-3
18.8	-1.145427339E-1	-1.292823121E-3	-5.317569897E-3
18.81	-8.612509024E-2	-2.412182054E-3	-6.127007949E-3
18.82	-5.364060726E-2	-2.390991708E-3	-6.776031300E-3
18.830000000000002	-2.102183531E-2	-1.732196246E-3	-7.587818080E-3
18.84	1.192063104E-2	-4.564733703E-4	-6.945067293E-3
18.85	4.243910207E-2	5.569988480E-4	-7.144905958E-3
18.86	7.081042907E-2	7.605034130E-4	-7.511535313E-3
18.87	1.000524669E-1	1.138320498E-3	-7.117635003E-3
18.88	1.262838822E-1	1.818616538E-3	-6.269017734E-3
18.89	1.497683866E-1	1.740173499E-3	-4.036067577E-3
18.900000000000002	1.718234351E-1	2.544593179E-3	-2.776746894E-3
18.91	1.915204615E-1	3.580228719E-3	-2.296989662E-3
18.92	2.072055814E-1	3.669079600E-3	-1.283336717E-3
18.93	2.202772583E-1	3.836145830E-3	-2.687631202E-4
18.94	2.313981481E-1	3.985735704E-3	5.708176248E-4
18.95	2.355149680E-1	3.814636538E-3	1.559052966E-3
18.96	2.372804321E-1	3.267843334E-3	2.970122362E-3
18.97	2.345921276E-1	2.362908763E-3	3.748261751E-3
18.98	2.275878979E-1	2.474536796E-3	4.844709071E-3
18.990000000000002	2.175938633E-1	1.455295375E-3	5.492158675E-3
19.0	2.039120128E-1	5.273567496E-5	6.474051067E-3
19.01	1.899127086E-1	1.338958997E-4	6.524217736E-3
19.02	1.753059326E-1	-1.101427266E-3	6.263221105E-3
19.03	1.621912928E-1	-5.132943065E-4	6.806058266E-3
19.04	1.515948285E-1	-7.018131225E-4	7.169692527E-3
19.05	1.445600729E-1	-4.120519078E-4	7.065925288E-3
19.06	1.393588200E-1	3.159247835E-4	6.228757541E-3
19.07	1.360457694E-1	4.357022951E-4	4.517889735E-3
19.080000000000002	1.385077685E-1	8.838623199E-4	2.795650112E-3
19.09	1.445683152E-1	1.074708724E-3	1.412217006E-4
19.1	1.517498339E-1	1.878312027E-3	-1.477882776E-3
19.11	1.587360624E-1	2.379915680E-3	-3.426511159E-3
19.12	1.647484567E-1	2.086478059E-3	-3.716640483E-3
19.13	1.688380314E-1	1.992823233E-3	-5.472425787E-3
19.14	1.670745182E-1	2.375038845E-3	-6.588419164E-3
19.150000000000002	1.606626054E-1	2.685761092E-3	-6.927707842E-3
19.16	1.461540046E-1	3.449685560E-3	-7.239634783E-3
19.17	1.249021170E-1	2.828430069E-3	-7.478539188E-3
19.18	9.724686417E-2	2.444611643E-3	-8.065217555E-3
19.19	6.564940471E-2	1.572067041E-3	-8.392362552E-3
19.2	2.884239377E-2	1.413834200E-3	-8.133586388E-3
19.21	-9.540842166E-3	1.489213290E-3	-8.039961280E-3
19.22	-4.754804211E-2	4.753428083E-4	-7.660424673E-3
19.23	-8.678458155E-2	-5.738242065E-4	-6.243281424E-3
19.240000000000002	-1.213795348E-1	-1.635311295E-3	-5.457847579E-3
19.25	-1.491022528E-1	-2.038259888E-3	-3.012219905E-3
19.26	-1.715338616E-1	-1.954017995E-3	-9.306395191E-4
19.27	-1.913249239E-1	-2.079268439E-3	-8.242271202E-4
19.28	-2.036097334E-1	-2.935401301E-3	6.969887338E-4
19.29	-2.101477158E-1	-3.551461584E-3	2.633877225E-3
19.3	-2.137768722E-1	-2.706468940E-3	3.574432979E-3
19.31	-2.149430914E-1	-3.086673184E-3	3.672058913E-3
19.32	-2.146011665E-1	-2.750407560E-3	4.397015200E-3
19.330000000000002	-2.127493451E-1	-3.033879586E-3	5.792633162E-3
19.34	-2.107554490E-1	-3.713585514E-3	6.565193208E-3
19.35	-2.076154979E-1	-2.882178076E-3	6.914842336E-3
19.36	-2.021744454E-1	-2.385205188E-3	8.184975162E-3
19.37	-1.958510217E-1	-2.109002124E-3	9.626183899E-3
19.38	-1.884026579E-1	-1.525774568E-3	9.662233226E-3
19.39	-1.808005025E-1	-1.288097164E-3	1.043073875E-2
19.400000000000002	-1.720436837E-1	-1.220535224E-3	1.039620330E-2
19.41	-1.629208782E-1	-1.160215832E-3	9.553469674E-3
19.42	-1.550602378E-1	-1.234066888E-3	9.140905930E-3
19.43	-1.483421045E-1	-1.069183678E-3	8.119412621E-3
19.44	-1.444761831E-1	-7.051040742E-5	5.410317251E-3
19.45	-1.428152398E-1	-1.008581318E-3	3.617495123E-3
19.46	-1.433780155E-1	-2.079826876E-3	1.806506551E-3
19.47	-1.453479617E-1	-1.756832528E-3	5.365907412E-4
19.48	-1.517628120E-1	-2.792706291E-3	-4.283469596E-4
19.490000000000002	-1.565526081E-1	-4.349791272E-3	-9.903585905E-4
19.5	-1.579824610E-1	-2.559407539E-3	-2.100999348E-3
19.51	-1.557850696E-1	-2.180852065E-3	-2.379438064E-3
19.52	-1.502522558E-1	-2.309205000E-3	-3.369624220E-3
19.53	-1.386380236E-1	-1.544719021E-3	-4.488443257E-3
19.54	-1.202619451E-1	-9.930751317E-4	-5.154612212E-3
19.55	-9.459119392E-2	-1.268805639E-3	-5.963007775E-3
19.56	-6.393071840E-2	-9.632469606E-4	-6.897122530E-3
19.57	-2.903021373E-2	-3.294996303E-4	-7.346020236E-3
19.580000000000002	8.553720620E-3	-6.223795483E-4	-7.483737125E-3
19.59	4.708707895E-2	3.190063848E-4	-8.444994684E-3
19.6	8.685892133E-2	1.501361760E-3	-7.585840432E-3
19.61	1.230410703E-1	1.041793952E-3	-6.935999159E-3
19.62	1.539454522E-1	2.687622267E-3	-5.775385389E-3
19.63	1.817192793E-1	2.297859437E-3	-3.868718219E-3
19.64	2.013761330E-1	1.557668840E-3	-3.874533850E-3
19.650000000000002	2.148890451E-1	2.487537797E-3	-2.634210948E-3
19.66	2.232989257E-1	2.322987251E-3	-1.267062625E-3
19.67	2.264905405E-1	2.745461277E-3	-3.747825934E-4
19.68	2.236075371E-1	3.825524495E-3	7.944763176E-4
19.69	2.172781655E-1	3.858521495E-3	2.120828530E-3
19.7	2.087786422E-1	2.767173948E-3	3.070251515E-3
19.71	1.993215308E-1	2.430248032E-3	3.805740672E-3
19.72	1.893470071E-1	2.384142803E-3	4.290101199E-3
19.73	1.816862656E-1	1.810863664E-3	4.749913844E-3
19.740000000000002	1.755095478E-1	1.645560332E-3	6.514240112E-3
19.75	1.712534677E-1	9.636372958E-4	7.575313449E-3
19.76	1.679377250E-1	-4.706678876E-4	7.871823625E-3
19.77	1.667688399E-1	-6.900710128E-4	7.770298764E-3
19.78	1.662479052E-1	-1.083705165E-4	7.217981690E-3
19.79	1.659016780E-1	-3.528148602E-4	6.339881297E-3
19.8	1.662909059E-1	-5.555742014E-4	4.653352704E-3
19.81	1.655355137E-1	3.961338489E-4	2.347740287E-3
19.82	1.633844660E-1	3.570593461E-4	4.105108363E-4
19.830000000000002	1.611841404E-1	4.058386795E-4	-1.345098858E-3
19.84	1.585649737E-1	2.272705363E-3	-2.355694113E-3
19.85	1.546933085E-1	3.376636259E-3	-3.448588817E-3
19.86	1.512645261E-1	3.379130202E-3	-3.436855092E-3
19.87	1.451377157E-1	3.797282473E-3	-4.024128792E-3
19.88	1.396584584E-1	3.114267488E-3	-5.550054876E-3
19.89	1.301546783E-1	3.448907288E-3	-5.980617294E-3
19.900000000000002	1.193231506E-1	2.909216706E-3	-6.871371647E-3
19.91	1.025616351E-1	2.202235859E-3	-7.396540304E-3
19.92	8.280029754E-2	1.210908035E-3	-7.463998864E-3
19.93	5.870410284E-2	9.206357331E-4	-7.652360799E-3
19.94	2.995041630E-2	5.130637268E-4	-7.949633368E-3
19.95	-3.485740161E-3	-6.786307705E-4	-7.912942854E-3
19.96	-4.012918322E-2	-5.867258594E-4	-7.055770713E-3
19.97	-7.883989024E-2	-8.475979113E-4	-5.643170502E-3
19.98	-1.161532455E-1	-1.377524446E-3	-5.114937267E-3
19.990000000000002	-1.491606154E-1	-2.277892849E-3	-1.831741073E-3
20.0	-1.813266215E-1	-2.482348363E-3	-3.362674012E-4
20.01	-2.057051347E-1	-2.786960403E-3	1.460214289E-3
20.02	-2.217888332E-1	-3.282068038E-3	1.722309726E-3
20.03	-2.313295095E-1	-3.052120793E-3	3.129794948E-3
20.04	-2.330657474E-1	-4.158491798E-3	3.358817346E-3
20.05	-2.303991086E-1	-2.464759029E-3	4.305921694E-3
20.06	-2.204511868E-1	-2.922424692E-3	5.042608151E-3
20.07	-2.084320905E-1	-3.306397864E-3	5.948680215E-3
20.080000000000002	-1.956845746E-1	-3.512116990E-3	6.121167330E-3
20.09	-1.824482103E-1	-3.705235715E-3	6.610479883E-3
20.1	-1.704753382E-1	-3.026270307E-3	7.868497166E-3
20.11	-1.619360552E-1	-1.735655921E-3	7.981811852E-3
20.12	-1.571098963E-1	-1.335230822E-3	8.522752503E-3
20.13	-1.545482212E-1	-1.219299629E-3	9.448320685E-3
20.14	-1.553088748E-1	-4.244340652E-4	8.910350019E-3
20.150000000000002	-1.571693429E-1	-4.001372137E-4	8.755751076E-3
20.16	-1.616250085E-1	-1.851306061E-3	7.969613703E-3
20.17	-1.657463167E-1	-5.530644132E-4	6.440723654E-3
20.18	-1.698392957E-1	-1.382256587E-3	4.378566809E-3
20.19	-1.722694268E-1	-2.072746209E-3	2.862107869E-3
20.2	-1.728988086E-1	-1.710071945E-3	1.576866599E-3
20.21	-1.710600254E-1	-2.826436885E-3	6.169248875E-4
20.22	-1.673424110E-1	-3.383469448E-3	-1.783985774E-4
20.23	-1.605521129E-1	-2.670233789E-3	-1.633990011E-3
20.240000000000002	-1.510379760E-1	-2.049924305E-3	-2.866570221E-3
20.25	-1.384071105E-1	-2.209779323E-3	-3.112582728E-3
20.26	-1.224135025E-1	-1.965369633E-3	-3.698202545E-3
20.27	-1.041801816E-1	-1.359463911E-3	-4.693778782E-3
20.28	-8.526632423E-2	-1.911710681E-3	-5.544799715E-3
20.29	-6.309173612E-2	-1.735309071E-3	-7.067942742E-3
20.3	-3.515123018E-2	-1.972397207E-3	-7.061520705E-3
20.31	-8.882604704E-3	-9.204409520E-4	-5.770258276E-3
20.32	2.051009068E-2	3.584486736E-4	-7.585413714E-3
20.330000000000002	5.177259061E-2	2.172370049E-4	-7.567347725E-3
20.34	8.060426950E-2	6.465960656E-4	-6.553416013E-3
20.35	1.122150427E-1	1.449351367E-3	-5.664343079E-3
20.36	1.430541475E-1	2.291526167E-3	-5.204506661E-3
20.37	1.688734819E-1	3.427288091E-3	-4.683103129E-3
20.38	1.913340093E-1	3.324657688E-3	-2.783844725E-3
20.39	2.107742968E-1	3.066585451E-3	-1.538890888E-3
20.400000000000002	2.239471018E-1	3.313118999E-3	-1.540177787E-3
20.41	2.316619103E-1	2.979466669E-3	-2.588740831E-4
20.42	2.337031140E-1	3.536152789E-3	9.563234698E-4
20.43	2.290118234E-1	2.577050478E-3	1.418223028E-3
20.44	2.193349675E-1	2.321529757E-3	2.241041972E-3
20.45	2.069967597E-1	5.951360879E-4	4.136210980E-3
20.46	1.916298701E-1	9.470065429E-5	4.467340144E-3
20.47	1.756824588E-1	-1.488212829E-4	5.431809596E-3
20.48	1.607799474E-1	6.713569796E-4	7.047331321E-3
20.490000000000002	1.499557365E-1	8.495964143E-4	7.982372160E-3
20.5	1.425762291E-1	1.438599594E-3	7.169753789E-3
20.51	1.411740168E-1	1.020398072E-3	6.934004886E-3
20.52	1.429389355E-1	4.862051884E-4	6.258487447E-3
20.53	1.485981633E-1	-3.394874028E-6	5.050343945E-3
20.54	1.571882180E-1	-4.651552065E-4	3.575188485E-3
20.55	1.669637032E-1	-3.036340780E-4	2.505170533E-3
20.56	1.757541350E-1	6.614135394E-4	1.670955282E-3
20.57	1.824495570E-1	1.500977790E-3	-1.379802817E-3
20.580000000000002	1.854810269E-1	1.764698094E-3	-2.180018302E-3
20.59	1.819890585E-1	2.495135352E-3	-4.119619023E-3
20.6	1.741555929E-1	2.825499683E-3	-4.406598576E-3
20.61	1.620183898E-1	4.119832118E-3	-5.275110570E-3
20.62	1.436236705E-1	3.815833857E-3	-6.701539290E-3
20.63	1.217238753E-1	3.634312348E-3	-5.656081934E-3
20.64	9.822631131E-2	2.880493596E-3	-7.214370968E-3
20.650000000000002	7.249502052E-2	2.231930961E-3	-7.325533067E-3
20.66	4.584151598E-2	1.438082687E-3	-8.285640362E-3
20.67	1.809019082E-2	9.399124024E-4	-7.681360217E-3
20.68	-1.009776122E-2	4.155880247E-4	-7.050276815E-3
20.69	-3.735962188E-2	-2.846872411E-4	-6.889924740E-3
20.7	-6.432074998E-2	-7.409781691E-4	-6.133331464E-3
20.71	-9.219957441E-2	-1.184854308E-3	-5.350693018E-3
20.72	-1.181573225E-1	-2.771509809E-3	-4.891858405E-3
20.73	-1.414359177E-1	-3.024803419E-3	-2.653410105E-3
20.740000000000002	-1.635641111E-1	-2.328916723E-3	-8.605863722E-6
20.75	-1.852099288E-1	-2.891234918E-3	1.161683634E-4
20.76	-1.989707278E-1	-2.567651073E-3	9.507614693E-4
20.77	-2.122281176E-1	-2.612002385E-3	3.115056295E-3
20.78	-2.196031393E-1	-2.073415309E-3	3.244240556E-3
20.79	-2.216578701E-1	-2.347727468E-3	4.018034111E-3
20.8	-2.194917710E-1	-2.692342008E-3	6.264235323E-3
20.81	-2.134186817E-1	-2.793750326E-3	7.013456850E-3
20.82	-2.040853145E-1	-2.880014893E-3	7.670345828E-3
20.830000000000002	-1.926868452E-1	-3.126063248E-3	8.310860470E-3
20.84	-1.801356969E-1	-2.932123721E-3	8.750410540E-3
20.85	-1.670781877E-1	-2.066131972E-3	9.156975558E-3
20.86	-1.570130339E-1	-1.875671209E-3	9.573373678E-3
20.87	-1.475519317E-1	-1.417612251E-3	9.516711725E-3
20.88	-1.418299055E-1	-4.968035409E-4	9.291774154E-3
20.89	-1.413062998E-1	-1.307994362E-3	8.718481678E-3
20.900000000000002	-1.438622728E-1	-7.832226720E-4	6.709568122E-3
20.91	-1.492412494E-1	-1.304470698E-3	4.874368342E-3
20.92	-1.573613097E-1	-1.631854116E-3	4.115624536E-3
20.93	-1.654098930E-1	-1.592154746E-3	2.132527377E-3
20.94	-1.714970421E-1	-2.522577811E-3	1.526028855E-3
20.95	-1.773595574E-1	-2.404008051E-3	1.504890199E-3
20.96	-1.783953644E-1	-2.723751964E-3	1.431169936E-4
20.97	-1.752249448E-1	-2.879729733E-3	-1.592645624E-3
20.98	-1.665001120E-1	-2.664826210E-3	-2.684804376E-3
20.990000000000002	-1.533159977E-1	-2.297378913E-3	-3.562733661E-3
21.0	-1.336849687E-1	-1.862649070E-3	-4.591350752E-3
21.01	-1.073445537E-1	-1.420788625E-3	-5.400855000E-3
21.02	-7.571140531E-2	-1.037267026E-3	-6.258735853E-3
21.03	-4.300889696E-2	-1.029515002E-3	-6.774582067E-3
21.04	-9.809299068E-3	-8.165017547E-4	-7.558522356E-3
21.05	2.508773704E-2	-1.026487546E-3	-9.232275800E-3
21.06	5.786486401E-2	-6.178140144E-4	-8.304266302E-3
21.07	8.768170292E-2	6.562376057E-4	-6.911723695E-3
21.080000000000002	1.142941757E-1	8.092518116E-4	-6.195454188E-3
21.09	1.371350536E-1	9.080479227E-4	-5.589253696E-3
21.1	1.560883823E-1	1.990095852E-3	-5.105914700E-3
21.11	1.716177833E-1	2.699875568E-3	-3.973893884E-3
21.12	1.825656847E-1	3.126974096E-3	-2.032482813E-3
21.13	1.905085703E-1	3.725400304E-3	-1.189796823E-3
21.14	1.970180513E-1	4.081213125E-3	-9.063243192E-4
21.150000000000002	2.013658916E-1	3.896528965E-3	-2.822583426E-4
21.16	2.033312926E-1	3.160179829E-3	1.179263941E-4
21.17	2.040195513E-1	2.622245242E-3	2.064864555E-3
21.18	2.030159484E-1	1.498322842E-3	3.507043498E-3
21.19	1.988794029E-1	1.756822533E-3	4.338904892E-3
21.2	1.926930219E-1	5.465530063E-4	5.825204620E-3
21.21	1.861864163E-1	-7.863655190E-4	5.966134699E-3
21.22	1.767568223E-1	-1.083913524E-3	6.765991515E-3
21.23	1.694542414E-1	-2.759782034E-4	7.173601399E-3
21.240000000000002	1.606999169E-1	-2.138592207E-5	6.894414092E-3
21.25	1.530481148E-1	-1.916574608E-4	6.982903521E-3
21.26	1.481628549E-1	-1.357985796E-4	6.243876533E-3
21.27	1.470870371E-1	1.294571078E-4	4.053809025E-3
21.28	1.485045710E-1	1.083187023E-3	2.088704622E-3
21.29	1.520075733E-1	2.106751009E-3	1.187104120E-3
21.3	1.576409602E-1	1.989002307E-3	4.504710058E-4
21.31	1.631702128E-1	1.444074384E-3	-1.274712129E-3
21.32	1.686631497E-1	2.841173400E-3	-2.113199075E-3
21.330000000000002	1.730411373E-1	3.374018350E-3	-3.119462086E-3
21.34	1.716321795E-1	2.926254686E-3	-4.443600839E-3
21.35	1.652248135E-1	3.252638514E-3	-5.240590945E-3
21.36	1.503404067E-1	2.009307470E-3	-5.524195416E-3
21.37	1.316435503E-1	2.452023437E-3	-6.203856447E-3
21.38	1.076410463E-1	2.434540635E-3	-6.700622534E-3
21.39	7.915523055E-2	1.306473673E-3	-6.820205004E-3
21.400000000000002	4.602135607E-2	5.113160517E-4	-6.963949842E-3
21.41	9.858877443E-3	2.655176989E-5	-7.288275683E-3
21.42	-2.537271885E-2	-5.018149292E-4	-7.594531819E-3
21.43	-6.202505262E-2	-8.135499186E-4	-6.826285543E-3
21.44	-9.614743389E-2	2.852230951E-4	-5.560658548E-3
21.45	-1.241791512E-1	-1.422730797E-3	-4.263135674E-3
21.46	-1.478765534E-1	-2.856870691E-3	-3.503469793E-3
21.47	-1.675195184E-1	-2.406921120E-3	-1.875330369E-3
21.48	-1.814494834E-1	-2.682902401E-3	-9.611843992E-4
21.490000000000002	-1.908010904E-1	-2.808407385E-3	9.503499012E-4
21.5	-1.968788684E-1	-2.937447292E-3	1.502779717E-3
21.51	-1.983205192E-1	-2.965589916E-3	2.789397874E-3
21.52	-1.968888030E-1	-2.487216372E-3	3.989143390E-3
21.53	-1.934824838E-1	-1.761564890E-3	4.285575043E-3
21.54	-1.892219549E-1	-1.573917428E-3	5.653053609E-3
21.55	-1.851129483E-1	-1.792540680E-3	6.844192769E-3
21.56	-1.802369923E-1	-2.599065187E-3	8.395302365E-3
21.57	-1.768216153E-1	-1.881592929E-3	8.660925161E-3
21.580000000000002	-1.727015928E-1	-2.448588197E-3	8.998743184E-3
21.59	-1.695315143E-1	-2.958234541E-4	8.841942819E-3
21.6	-1.669420446E-1	-1.737502388E-3	1.022707166E-2
21.61	-1.653705047E-1	-4.147864382E-4	9.696241053E-3
21.62	-1.638803388E-1	-1.752963814E-4	9.241508682E-3
21.63	-1.634562273E-1	-9.557025609E-4	8.725101446E-3
21.64	-1.629355566E-1	-9.286066393E-4	7.018453925E-3
21.650000000000002	-1.617585788E-1	-1.771084525E-3	5.284156442E-3
21.66	-1.612236105E-1	-1.949199758E-3	3.892507781E-3
21.67	-1.612078952E-1	-1.628158704E-3	2.264218230E-3
21.68	-1.604814447E-1	-1.924218949E-3	7.107249736E-4
21.69	-1.597060811E-1	-2.131985472E-3	-4.859342260E-5
21.7	-1.584861447E-1	-2.092129150E-3	-8.369149713E-4
21.71	-1.541431272E-1	-2.346653705E-3	-1.782634549E-3
21.72	-1.464719708E-1	-3.623028485E-3	-3.083538811E-3
21.73	-1.360385280E-1	-2.404041472E-3	-3.172039562E-3
21.740000000000002	-1.216743992E-1	-2.493911187E-3	-4.019598333E-3
21.75	-1.018395150E-1	-2.232648851E-3	-4.523634196E-3
21.76	-7.673809177E-2	-8.252933342E-4	-5.861398961E-3
21.77	-4.693945041E-2	-1.349756373E-4	-6.173449110E-3
21.78	-1.488083721E-2	-6.182697313E-5	-6.312885639E-3
21.79	2.312109183E-2	2.811804776E-4	-6.785067539E-3
21.8	5.867732245E-2	1.119847545E-3	-6.632427310E-3
21.81	9.340846186E-2	1.879291141E-3	-5.900656315E-3
21.82	1.259774166E-1	2.655009667E-3	-5.160745049E-3
21.830000000000002	1.536106828E-1	2.630162771E-3	-4.761556717E-3
21.84	1.774623733E-1	1.749995743E-3	-3.714712907E-3
21.85	1.940046222E-1	2.172271495E-3	-1.651601232E-3
21.86	2.022182959E-1	1.984766932E-3	-1.585856583E-3
21.87	2.052093499E-1	1.358311189E-3	-6.595604125E-4
21.88	2.040747260E-1	2.644185242E-3	1.013748237E-3
21.89	1.977743460E-1	3.198543241E-3	3.838020882E-4
21.900000000000002	1.897333098E-1	2.360733300E-3	1.262672970E-3
21.91	1.823865118E-1	3.052274002E-3	2.758010382E-3
21.92	1.741467024E-1	2.528724468E-3	3.707114391E-3
21.93	1.676188359E-1	2.168062492E-3	4.338785311E-3
21.94	1.630968763E-1	1.060313087E-3	5.637618301E-3
21.95	1.599837725E-1	1.817797919E-4	6.420220175E-3
21.96	1.597922975E-1	-1.577310159E-4	6.666340244E-3
21.97	1.613834771E-1	-1.990368836E-4	6.781051007E-3
21.98	1.635435035E-1	-4.356414081E-4	6.422593982E-3
21.990000000000002	1.660917336E-1	-9.473926782E-4	5.535768369E-3
22.0	1.687370384E-1	-3.047630331E-4	4.499813353E-3
22.01	1.705624800E-1	3.822945598E-4	2.737176352E-3
22.02	1.727894483E-1	2.819177472E-4	1.987471589E-3
22.03	1.731851346E-1	7.546044370E-4	-3.808273912E-4
22.04	1.726515128E-1	1.702646216E-3	-9.694513466E-5
22.05	1.691260922E-1	3.166999203E-3	-2.381367036E-3
22.06	1.655035802E-1	4.471557730E-3	-2.733985844E-3
22.07	1.593274555E-1	3.943237943E-3	-3.102298413E-3
22.080000000000002	1.502547988E-1	3.359713504E-3	-3.735537580E-3
22.09	1.386659087E-1	3.116966088E-3	-3.999529316E-3
22.1	1.243338344E-1	2.057643521E-3	-4.684354498E-3
22.11	1.060532708E-1	1.344734737E-3	-5.836848364E-3
22.12	8.525574608E-2	9.175710636E-4	-6.993687795E-3
22.13	6.163452034E-2	-1.957824443E-4	-7.584053407E-3
22.14	3.470983865E-2	-1.284925429E-3	-7.394168031E-3
22.150000000000002	5.118564022E-3	-9.738114275E-4	-7.308887697E-3
22.16	-2.529327316E-2	-5.613874082E-4	-6.961701051E-3
22.17	-5.687728771E-2	8.932702193E-5	-6.927316877E-3
22.18	-8.935200735E-2	-6.612473485E-4	-6.155088182E-3
22.19	-1.177708911E-1	-1.464403371E-3	-3.661398260E-3
22.2	-1.456968126E-1	-1.530525708E-3	-1.990700447E-3
22.21	-1.693877245E-1	-1.270891796E-3	-1.921532630E-3
22.22	-1.868307439E-1	-1.569679946E-3	-4.522234857E-4
22.23	-2.003419392E-1	-1.943374112E-3	9.903256193E-4
22.240000000000002	-2.077646296E-1	-3.183131675E-3	1.697042327E-3
22.25	-2.086978849E-1	-3.633209755E-3	3.130281087E-3
22.26	-2.054747014E-1	-3.182924035E-3	4.087537842E-3
22.27	-1.985727930E-1	-2.443470610E-3	4.355333021E-3
22.28	-1.879152150E-1	-2.089213446E-3	4.945020097E-3
22.29	-1.764109680E-1	-2.420003396E-3	6.010621090E-3
22.3	-1.639784779E-1	-1.403865027E-3	7.469923081E-3
