Time (s)	Acceleration x (m/s^2)	Acceleration y (m/s^2)	Acceleration z (m/s^2)
0.0	2.583385739E-5	-1.181260133E-3	4.673775759E-3
0.01	-8.325038890E-4	-1.181335688E-3	3.701180123E-3
0.02	-6.117735806E-4	-1.191260133E-3	4.659121313E-3
0.03	-4.510369056E-4	-1.191260133E-3	3.693775747E-3
0.04	-2.942307215E-4	-1.191260133E-3	3.752094286E-3
0.05	3.256166589E-4	-1.191260133E-3	5.544098511E-3
0.06	-4.175094407E-4	-1.191260133E-3	2.757585136E-3
0.07	3.960526126E-4	-1.191260133E-3	3.693254735E-3
0.08	9.690386444E-4	-1.191260133E-3	3.683775764E-3
0.09	1.173941946E-3	-1.191260133E-3	3.683775764E-3
0.1	-1.006898708E-3	-1.191260133E-3	3.830138099E-3
0.11	-7.439754155E-5	-1.190443068E-3	5.733030980E-3
0.12	-4.034562166E-4	-1.182152625E-3	6.449739872E-3
0.13	-2.274795296E-4	-1.191260133E-3	4.768490054E-3
0.14	3.198807837E-4	-1.190219680E-3	5.653775677E-3
0.15	-3.820867939E-4	-1.181260133E-3	5.654890109E-3
0.16	-7.629777087E-4	-1.131346727E-3	5.780240279E-3
0.17	-5.622517831E-4	-8.584799183E-4	6.520041403E-3
0.18	1.025396228E-3	-1.531260121E-3	5.793556860E-3
0.19	2.704421830E-3	-1.534083985E-3	6.633775663E-3
0.2	2.985586612E-3	-1.552746043E-3	6.489642189E-3
0.21	4.338534827E-3	-1.562820010E-3	5.663775660E-3
0.22	2.353960701E-3	-1.571260123E-3	5.663775660E-3
0.23	8.715217700E-4	-1.572968243E-3	5.829463584E-3
0.24	1.672267020E-3	-1.581260106E-3	6.633775663E-3
0.25	1.473809632E-3	-1.583117502E-3	6.997824117E-3
0.26	3.011479647E-4	-1.589328759E-3	8.215226990E-3
0.27	-1.264166110E-3	-1.583265464E-3	6.633775663E-3
0.28	-1.060391562E-3	-1.591260136E-3	6.633775663E-3
0.29	1.314233253E-4	-1.591260136E-3	6.633775663E-3
0.3	1.641378560E-3	-1.593487776E-3	6.633775663E-3
0.31	1.621228041E-3	-1.601260119E-3	6.859454818E-3
0.32	1.598703287E-3	-1.598883293E-3	7.380846307E-3
0.33	1.570932203E-3	-1.593710942E-3	6.873955055E-3
0.34	1.800738614E-3	-1.603784906E-3	7.613775607E-3
0.35000000000000003	2.013875808E-3	-1.364376783E-3	7.359095979E-3
0.36	5.558338251E-4	-9.205171581E-4	6.895705432E-3
0.37	2.893587657E-4	-1.634007288E-3	7.882997853E-3
0.38	-6.851057889E-4	-1.641260144E-3	8.317191360E-3
0.39	-1.090331725E-3	-1.638363866E-3	7.329941229E-3
0.4	-3.941661444E-4	-1.634230373E-3	7.507029130E-3
0.41000000000000003	-3.941661444E-4	-1.644304369E-3	8.977106363E-3
0.42	-9.481783858E-5	-1.651260127E-3	7.919360340E-3
0.43	1.178734785E-3	-1.654452314E-3	8.280940750E-3
0.44	2.482567078E-3	-1.661260110E-3	7.933910952E-3
0.45	2.469150332E-3	-1.664601848E-3	8.593775619E-3
0.46	2.449002404E-3	-1.674675842E-3	8.593775619E-3
0.47000000000000003	2.432344161E-3	-1.681260122E-3	9.277754785E-3
0.48	1.723790765E-3	-1.684823787E-3	9.855296210E-3
0.49	1.029816971E-4	-1.342045609E-3	8.950265439E-3
0.5	-8.741944351E-4	-1.091288461E-3	9.937515582E-3
0.51	-1.113117683E-3	-1.337784113E-3	1.055377564E-2
0.52	-1.334940504E-4	-1.115793390E-3	9.796986775E-3
0.53	4.558338553E-4	-1.711260118E-3	8.208131056E-3
0.54	8.407102436E-4	-1.715269240E-3	8.006670278E-3
0.55	2.203873980E-3	-1.721260101E-3	8.593775619E-3
0.56	2.925967521E-3	-1.717103017E-3	8.186380711E-3
0.5700000000000001	1.912660034E-3	-1.711260118E-3	8.443196272E-3
0.58	1.327220572E-3	-1.711260118E-3	9.151726221E-3
0.59	3.669646923E-5	-1.711260118E-3	8.164476098E-3
0.6	-1.167616519E-3	-1.711260118E-3	8.486874897E-3
0.61	-6.196375650E-4	-1.715788679E-3	9.573775630E-3
0.62	-1.060613417E-3	-1.725862664E-3	9.573775630E-3
0.63	-6.769191745E-4	-1.282313203E-3	9.115475636E-3
0.64	-1.050383188E-4	-1.236883541E-3	8.593775619E-3
0.65	-6.141661432E-4	-1.756086177E-3	8.120821127E-3
0.66	1.287052021E-3	-1.290855629E-3	8.574184824E-3
0.67	2.763456953E-3	-1.283740823E-3	9.086320903E-3
0.68	2.240689778E-3	-1.286651299E-3	8.593775619E-3
0.6900000000000001	2.210467887E-3	-1.308093103E-3	9.095730581E-3
0.7000000000000001	2.180245899E-3	-1.776064153E-3	9.064570548E-3
0.71	1.638755720E-3	-1.771260109E-3	8.077239089E-3
0.72	1.149797320E-3	-1.258091566E-3	7.613775607E-3
0.73	5.993046636E-4	-8.220991135E-4	7.082665948E-3
0.74	-3.760455452E-4	-1.364126459E-3	7.710495244E-3
0.75	2.703513508E-4	-1.801260105E-3	8.593775619E-3
0.76	2.575521697E-5	-1.801260105E-3	8.593775619E-3
0.77	-8.184507123E-4	-3.458728960E-3	8.593775619E-3
0.78	1.970969221E-3	-1.887173248E-3	8.026325990E-3
0.79	2.828709684E-3	-9.849244965E-4	8.188540263E-3
0.8	3.116412929E-3	-2.361397017E-3	8.011760836E-3
0.81	9.475480902E-4	-6.202668757E-3	7.613775607E-3
0.8200000000000001	1.866901253E-4	-1.726246537E-2	8.210290627E-3
0.8300000000000001	-4.131521343E-3	-4.415960442E-2	1.039919442E-2
0.84	-3.022888237E-3	-6.989708705E-2	9.690555630E-3
0.85	1.552671069E-4	-9.555045459E-2	9.826810904E-3
0.86	-2.260563860E-2	-2.226754312E-1	1.055377564E-2
0.87	-1.349030329E-2	-2.752701384E-1	1.562359260E-2
0.88	-1.294569051E-3	-2.375523681E-1	1.712343546E-2
0.89	2.782331282E-2	-1.511399289E-1	5.444240491E-3
0.9	1.458049367E-2	-1.153386034E-1	5.038643537E-3
0.91	4.528013541E-3	-7.611809064E-2	8.312606023E-3
0.92	-2.098232928E-2	-6.102914067E-2	7.971280726E-3
0.93	-5.119155327E-2	2.040363415E-2	-3.154517378E-3
0.9400000000000001	-4.242698812E-2	-9.277856673E-2	1.663240657E-2
0.9500000000000001	2.577788562E-2	-2.736922954E-2	1.141610111E-2
0.96	-1.440528255E-1	-6.447275759E-2	6.875876982E-3
0.97	5.328083560E-2	-1.509529158E-1	2.327047915E-2
0.98	2.580447493E-2	3.640551228E-2	7.873147827E-4
0.99	-3.173947792E-2	-3.854251109E-2	1.100513841E-2
1.0	1.336300641E-1	2.108940134E-2	1.417889615E-2
1.01	-2.644143644E-2	-2.830357582E-3	-5.704474555E-3
1.02	-1.477871663E-2	1.279917733E-3	3.752929740E-3
1.03	-4.225623406E-2	-6.075661097E-2	9.510651152E-3
1.04	-1.584762967E-2	1.148060224E-3	-9.927810846E-3
1.05	-1.174720078E-1	-2.289281003E-2	1.330698493E-2
1.06	7.666198529E-3	3.899438361E-2	-2.245451834E-2
1.07	8.420128026E-3	2.606584241E-2	-8.655691910E-3
1.08	-6.673599240E-2	4.958771344E-2	1.450211288E-2
1.09	1.978365790E-2	-3.842273010E-2	-4.454694638E-4
1.1	4.632395388E-2	2.218041185E-2	2.266127348E-3
1.11	-7.172065996E-2	-4.712660791E-2	9.536553711E-3
1.12	1.148095014E-1	9.051838640E-2	-5.552020199E-3
1.1300000000000001	5.073287324E-2	3.987536698E-2	-4.746024163E-3
1.1400000000000001	1.433316331E-2	1.299440043E-1	3.498924051E-3
1.1500000000000001	-2.956878094E-2	2.836843241E-2	9.864480690E-3
1.16	3.880547243E-3	1.178408578E-1	1.442082369E-3
1.17	-1.145742161E-1	8.579076853E-2	1.184965744E-2
1.18	1.258463126E-2	2.304603746E-1	1.106097941E-2
1.19	2.204830022E-2	1.966230936E-1	5.499606250E-3
1.2	-2.392764146E-2	2.826247729E-1	1.177952076E-2
1.21	-1.788773927E-2	2.040014235E-1	1.701678824E-2
1.22	7.921464841E-2	2.955189352E-1	5.080486058E-3
1.23	-4.057063990E-2	2.438926200E-1	1.450186100E-2
1.24	4.990301293E-2	3.276151736E-1	1.009284071E-2
1.25	6.229332307E-2	2.855300657E-1	8.695867495E-3
1.26	1.662359702E-2	3.285923956E-1	1.412337537E-2
1.27	-2.202428050E-2	2.396937582E-1	9.940369095E-3
1.28	4.442378201E-2	2.564743312E-1	6.870451922E-3
1.29	-5.921193410E-2	1.729157637E-1	7.662273703E-3
1.3	-5.176550640E-2	1.621913813E-1	5.821916731E-3
1.31	1.525002789E-2	9.095932434E-2	6.697055957E-3
1.32	-1.946163948E-2	9.618984608E-2	7.693829141E-3
1.33	-9.640717388E-3	4.170431985E-2	5.788638043E-3
1.34	7.323066911E-2	2.985867995E-2	8.899997292E-4
1.35	-3.003193339E-3	-2.449063898E-2	5.773775660E-3
1.36	-1.995067714E-2	-4.219096393E-2	5.717221574E-3
1.37	5.404105820E-2	-2.827016490E-2	-3.275471025E-5
1.3800000000000001	1.654534244E-2	3.348392842E-4	4.698136077E-3
1.3900000000000001	-1.378914552E-2	3.135857046E-2	7.802954585E-4
1.4000000000000001	2.357272094E-2	1.909292939E-2	-2.027813994E-3
1.41	-1.571876280E-2	2.344052792E-2	-9.035539462E-4
1.42	-8.049989572E-2	1.170310591E-3	2.517012024E-3
1.43	9.950847046E-3	2.180342514E-2	-2.895594334E-3
1.44	-1.811561348E-2	1.268615495E-2	-1.191354022E-3
1.45	-1.088758615E-2	3.151934013E-2	-2.866570317E-3
1.46	3.994561395E-2	-8.712532823E-3	-7.273466748E-4
1.47	2.511375634E-2	-1.849216507E-2	2.863775853E-3
1.48	-1.857392117E-2	-5.500199767E-2	2.766069303E-3
1.49	3.484955933E-2	-5.934085849E-2	2.081715387E-3
1.5	1.069783460E-2	-8.061176189E-2	3.944995549E-3
1.51	-2.356982090E-2	-6.768966787E-2	4.812566831E-3
1.52	6.783214874E-3	-9.488975719E-2	4.425273061E-3
1.53	8.035336076E-3	-9.528977638E-2	2.517935200E-3
1.54	-5.771484704E-2	-1.391459213E-1	6.603533273E-3
1.55	-1.073275263E-2	-1.545991774E-1	5.908387628E-3
1.56	-1.444572579E-2	-2.041649969E-1	6.877070162E-3
1.57	-2.372805850E-2	-1.984311395E-1	7.529996383E-3
1.58	1.585771233E-2	-2.303726555E-1	6.702047345E-3
1.59	4.137974231E-2	-2.356594326E-1	6.691973076E-3
1.6	-4.761697467E-3	-2.797937099E-1	7.602045521E-3
1.61	1.250088751E-2	-2.936446184E-1	1.099798450E-2
1.62	1.085673503E-2	-3.125734091E-1	8.828382792E-3
1.6300000000000001	-1.669202316E-2	-2.732336336E-1	1.004323561E-2
1.6400000000000001	-6.184253882E-3	-2.550143111E-1	1.030559544E-2
1.6500000000000001	1.161417719E-2	-2.210281277E-1	6.205104387E-3
1.6600000000000001	-3.036175953E-2	-1.870238853E-1	7.692151215E-3
1.67	-2.312801783E-2	-1.643676478E-1	6.649251861E-3
1.68	-2.163274797E-3	-1.416500657E-1	6.106075362E-3
1.69	-2.379779230E-2	-9.814374431E-2	6.808685151E-3
1.7	-3.077428008E-3	-6.314814146E-2	5.764416397E-3
1.71	3.245305811E-2	-2.751363130E-2	3.388952824E-3
1.72	1.557373391E-2	-4.303464169E-3	5.342393453E-3
1.73	1.226345677E-2	7.644924263E-3	5.052237968E-3
1.74	2.049189202E-2	5.763365771E-3	1.415455281E-3
1.75	-8.853772224E-3	9.709847814E-3	2.800784930E-3
1.76	-1.525886792E-2	9.838032270E-3	9.917359887E-4
1.77	7.629804118E-3	1.242305047E-2	-2.781772850E-3
1.78	-1.516970373E-2	8.871593311E-3	-1.486543729E-3
1.79	-1.586837175E-2	-2.321373244E-3	-1.766929230E-3
1.8	2.884423485E-3	-2.682116941E-2	-4.726729327E-3
1.81	-1.591586017E-2	-4.173966480E-2	-2.729244640E-3
1.82	-1.177742307E-2	-4.822581274E-2	-1.188208905E-3
1.83	2.425523231E-2	-3.537432120E-2	-2.744979333E-3
1.84	1.821796599E-2	-2.035521857E-2	-6.822435141E-4
1.85	1.329625607E-2	-2.669335587E-3	1.803775791E-3
1.86	2.315328891E-2	1.163158239E-2	1.430721701E-3
1.87	7.667602993E-4	3.029744228E-2	1.964975283E-3
1.8800000000000001	-1.233291813E-2	6.099767211E-2	3.376125837E-3
1.8900000000000001	5.236104265E-3	1.009329439E-1	2.783775616E-3
1.9000000000000001	-4.745317406E-3	1.423676233E-1	3.583972333E-3
1.9100000000000001	-1.022157917E-2	1.729175127E-1	4.324375389E-3
1.92	9.896428334E-3	1.942206046E-1	4.587076401E-3
1.93	-2.979216304E-3	2.025106481E-1	6.129090527E-3
1.94	-8.321543725E-3	2.108361484E-1	6.669374591E-3
1.95	1.634628331E-2	2.200505268E-1	6.663775661E-3
1.96	1.647348454E-2	2.344419979E-1	7.550836813E-3
1.97	9.926124576E-3	2.448214685E-1	9.066830813E-3
1.98	2.464418560E-2	2.440053394E-1	8.691952882E-3
1.99	1.301528290E-2	2.349250063E-1	8.604261936E-3
2.0	-8.427334549E-3	2.315891079E-1	8.669009387E-3
2.0100000000000002	-2.550619123E-3	2.184450945E-1	7.309339962E-3
2.02	-5.459224287E-3	2.113640435E-1	6.913819731E-3
2.0300000000000002	-1.194337430E-2	2.093503844E-1	6.848433305E-3
2.04	4.628786500E-3	1.970187220E-1	5.800427695E-3
2.05	4.129565210E-3	1.692618108E-1	5.840705764E-3
2.06	-5.159276911E-3	1.312780806E-1	5.726546088E-3
2.07	6.579020627E-3	8.971972407E-2	4.267178876E-3
2.08	1.065757320E-2	5.181899391E-2	3.869055129E-3
2.09	2.721856210E-3	2.033787113E-2	4.447599132E-3
2.1	1.607523171E-2	1.226972910E-4	2.666550972E-3
2.11	1.313159698E-2	-1.676459604E-2	1.439008024E-3
2.12	-7.889688309E-3	-2.990525731E-2	1.828039053E-3
2.13	-6.240950386E-3	-3.700921267E-2	1.094048864E-4
2.14	-6.584052343E-3	-2.775450574E-2	-2.285649648E-3
2.15	-1.943196071E-2	-1.299128214E-2	-3.096224453E-3
2.16	-3.792738044E-3	9.736217719E-3	-4.284798207E-3
2.17	7.124373153E-3	2.838246335E-2	-4.467703798E-3
2.18	5.621979211E-4	3.788232105E-2	-3.424821466E-3
2.19	6.815002311E-3	3.811192130E-2	-4.254970689E-3
2.2	1.094268239E-2	3.616845219E-2	-3.761705099E-3
2.21	5.941812952E-4	2.648506286E-2	-2.380119868E-3
2.22	1.030502564E-2	1.551046863E-2	-7.493311031E-4
2.23	1.387299729E-2	-1.013494581E-3	-7.215051300E-4
2.24	-2.414157406E-3	-2.187510184E-2	8.555449750E-4
2.25	-1.885593937E-3	-5.446480402E-2	1.170399589E-3
2.2600000000000002	-3.703561397E-3	-9.354793686E-2	1.507806040E-3
2.27	-1.996942503E-2	-1.261678561E-1	2.488255517E-3
2.2800000000000002	-1.347962799E-2	-1.548631275E-1	3.472355977E-3
2.29	1.654490733E-3	-1.776647601E-1	3.080947121E-3
2.3000000000000003	-3.407367369E-3	-1.993467820E-1	4.863016901E-3
2.31	1.591404057E-3	-2.091414040E-1	4.315968383E-3
2.32	8.590965506E-3	-2.300627670E-1	5.154717024E-3
2.33	-3.670768837E-3	-2.475599767E-1	6.394169174E-3
2.34	-1.550772707E-3	-2.415968892E-1	7.530775406E-3
2.35	7.548869661E-3	-2.382777934E-1	8.513711012E-3
2.36	-1.270232011E-3	-2.339835368E-1	8.706187075E-3
2.37	-1.196646871E-3	-2.136859012E-1	8.223090949E-3
2.38	2.224209265E-3	-2.048956200E-1	7.207555015E-3
2.39	-1.454208289E-2	-1.956966011E-1	6.874107845E-3
2.4	-1.655497438E-2	-1.833672052E-1	6.048809521E-3
2.41	-9.966128957E-4	-1.638840701E-1	4.245938540E-3
2.42	-4.868069326E-3	-1.397979762E-1	4.588239772E-3
2.43	-2.909889540E-3	-1.162395564E-1	3.980061036E-3
2.44	6.961852913E-3	-8.908120784E-2	2.445439584E-3
2.45	-3.539645874E-4	-7.162990008E-2	4.458712680E-3
2.46	-7.084919611E-3	-5.934062928E-2	4.106406007E-3
2.47	4.715143992E-3	-3.565308081E-2	2.390924938E-3
2.48	-6.023435911E-4	-1.696742709E-2	2.016512814E-3
2.49	-5.945269572E-3	2.374648451E-3	2.818069301E-4
2.5	1.410292274E-3	1.199825421E-2	-1.737811076E-3
2.5100000000000002	-5.365643482E-3	1.545804921E-2	-2.906702804E-3
2.52	-1.492498257E-2	1.341714334E-2	-3.063636244E-3
2.5300000000000002	-1.315791289E-3	1.262851502E-2	-5.665134076E-3
2.54	9.140614803E-4	9.761994663E-3	-5.176232048E-3
2.5500000000000003	-2.421118608E-3	4.149037435E-3	-5.950102374E-3
2.56	1.228364386E-2	-7.780605745E-3	-6.056223895E-3
2.57	8.590971149E-3	-1.931618196E-2	-5.148463976E-3
2.58	-4.253891614E-3	-3.211189038E-2	-2.374811027E-3
2.59	5.658058148E-3	-3.760185204E-2	-2.135449456E-3
2.6	-5.283165042E-4	-2.773246154E-2	-2.577162251E-4
2.61	-9.181637677E-3	-1.173865641E-2	7.836342722E-4
2.62	3.360627728E-3	1.782909879E-2	8.248809546E-4
2.63	1.154662721E-3	4.264911502E-2	1.699890460E-3
2.64	-1.014592714E-2	8.176503370E-2	8.032657098E-4
2.65	-8.242417637E-5	1.205147982E-1	7.637756952E-4
2.66	5.138589870E-3	1.667226859E-1	-1.912343648E-4
2.67	-1.312884489E-3	1.876152465E-1	3.740825745E-3
2.68	1.025126259E-2	2.279130134E-1	4.743860589E-3
2.69	1.529031317E-2	2.530905667E-1	6.677699792E-3
2.7	7.006216210E-3	2.490063131E-1	6.953350666E-3
2.71	7.119362791E-3	2.483854931E-1	6.853076782E-3
2.72	8.895280182E-3	2.433571636E-1	6.801774999E-3
2.73	-2.359711449E-3	2.168373838E-1	7.235459877E-3
2.74	1.751833716E-3	2.101043581E-1	7.996549185E-3
2.75	8.943264573E-3	1.966873950E-1	6.955636477E-3
2.7600000000000002	-4.980949547E-4	1.645537479E-1	7.452064673E-3
2.77	-1.641907669E-3	1.272001549E-1	7.088348424E-3
2.7800000000000002	6.136175578E-3	1.151173995E-1	4.981022663E-3
2.79	-8.249911250E-4	8.599077929E-2	7.422478609E-3
2.8000000000000003	3.280991271E-3	6.343739507E-2	6.935230324E-3
2.81	1.287893470E-2	6.191376691E-2	4.526747538E-3
2.82	8.842193168E-3	5.235960219E-2	5.016445368E-3
2.83	4.746063537E-3	2.906472634E-2	5.190747657E-3
2.84	6.577483128E-3	1.648334956E-2	3.774480947E-3
2.85	-1.920782575E-3	3.487808431E-3	2.619159986E-3
2.86	-6.093968394E-3	-8.569679757E-3	2.317008816E-3
2.87	4.440512678E-3	-1.007628536E-2	-1.180630792E-4
2.88	2.491536277E-4	-1.173620537E-2	-3.681392001E-3
2.89	-2.716255158E-3	-9.885231017E-3	-3.782035459E-3
2.9	4.352263875E-3	-1.220037381E-2	-3.976541911E-3
2.91	-4.689211789E-4	-8.505047312E-3	-4.867824713E-3
2.92	-2.439366833E-3	-5.354900846E-3	-4.877898865E-3
2.93	6.069455672E-3	1.055868415E-3	-4.380826921E-3
2.94	6.232137489E-3	9.692461655E-3	-2.180352286E-3
2.95	3.651023347E-3	1.338605638E-2	-2.816392752E-3
2.96	5.176882288E-3	7.393013652E-3	-1.818855810E-3
2.97	-9.778476384E-4	-1.572042304E-3	-6.592463959E-4
2.98	-8.825998138E-3	-1.388829053E-2	8.731745536E-4
2.99	-3.399166945E-3	-2.636225842E-2	8.228045461E-4
3.0	-3.436934583E-3	-4.213001702E-2	7.837756612E-4
3.0100000000000002	-5.436961770E-3	-6.656740273E-2	7.837756612E-4
3.02	9.033326324E-4	-9.205118079E-2	8.031177605E-4
3.0300000000000002	1.147716443E-4	-1.135541575E-1	1.342189103E-3
3.04	-4.682222030E-3	-1.490784443E-1	3.376456231E-3
3.0500000000000003	-6.601178213E-4	-1.641628034E-1	5.006665708E-3
3.06	5.388875970E-4	-1.764848067E-1	5.786832494E-3
3.0700000000000003	-2.457960237E-3	-1.868653827E-1	8.826525819E-3
3.08	3.143809872E-4	-1.906764757E-1	9.938814170E-3
3.09	-2.125603017E-3	-1.876974403E-1	1.123792012E-2
3.1	-8.243350311E-3	-1.872951221E-1	1.163154032E-2
3.11	-7.657548545E-3	-1.906632380E-1	1.062559039E-2
3.12	-6.251097896E-3	-1.580501011E-1	1.192710006E-2
3.13	-7.526473534E-3	-1.273660252E-1	1.215188837E-2
3.14	-6.895269760E-4	-1.055255572E-1	1.070377557E-2
3.15	2.552160176E-3	-6.465106593E-2	1.026403061E-2
3.16	-1.163401108E-3	-2.813687873E-2	1.013658210E-2
3.17	-3.447156809E-4	-2.514049771E-3	1.072585663E-2
3.18	2.247241035E-3	1.620063578E-2	9.036686029E-3
3.19	4.869404257E-4	2.438573721E-2	8.814025847E-3
3.2	1.652071731E-3	2.042736802E-2	8.373264118E-3
3.21	2.195846764E-3	1.619849662E-2	6.668345929E-3
3.22	-2.643116023E-3	1.280037782E-2	5.496741245E-3
3.23	-3.274257291E-3	4.138259833E-3	3.791924697E-3
3.24	-4.196292442E-3	-3.774752915E-3	6.683043596E-4
3.25	-5.270210567E-3	-1.491862992E-3	-1.246193022E-3
3.2600000000000002	-3.583171735E-5	-4.831205666E-4	-1.683748253E-3
3.27	4.336537270E-3	-2.082620119E-3	-4.879006922E-3
3.2800000000000002	4.227566758E-3	-1.686079955E-4	-6.453104269E-3
3.29	5.828586567E-3	3.295770980E-3	-5.449043027E-3
3.3000000000000003	7.645049920E-3	5.476551313E-3	-4.748198287E-3
3.31	3.501480135E-3	9.052029538E-3	-3.769071799E-3
3.3200000000000003	3.941901650E-3	1.379899932E-2	-3.382955005E-3
3.33	6.189713889E-3	1.704884021E-2	-2.476935830E-3
3.34	2.098610938E-3	1.773264993E-2	-1.550550609E-3
3.35	-3.521140485E-5	1.839274850E-2	-1.366287995E-4
3.36	-5.760863758E-4	2.464335483E-2	-1.345366207E-4
3.37	-3.216139894E-3	3.478354274E-2	-6.698333510E-4
3.38	-1.019274126E-3	4.840045926E-2	-1.203655249E-3
3.39	3.697741424E-3	6.437338696E-2	-1.066523332E-3
3.4	3.765484451E-3	8.058142023E-2	2.570881429E-4
3.41	3.807745750E-3	9.783067544E-2	1.453308323E-3
3.42	5.448947747E-3	1.155230203E-1	4.341886434E-3
3.43	3.377985664E-3	1.326854587E-1	6.184761039E-3
3.44	1.951982008E-3	1.471270306E-1	7.477945276E-3
3.45	4.241939342E-3	1.736465452E-1	9.242122792E-3
3.46	3.464480113E-3	1.880051465E-1	1.050292861E-2
3.47	2.694564732E-3	1.802257657E-1	1.176373129E-2
3.48	2.196968726E-3	1.614688886E-1	1.315190374E-2
3.49	-3.455275757E-4	1.337283695E-1	1.459422098E-2
3.5	-8.942212213E-4	1.017512038E-1	1.596115632E-2
3.5100000000000002	5.813083883E-4	6.909831180E-2	1.536987034E-2
3.52	1.674141684E-3	3.666590164E-2	1.440479093E-2
3.5300000000000002	1.739779926E-3	7.457308294E-3	1.541971285E-2
3.54	2.969060892E-3	-1.725802776E-2	1.438883536E-2
3.5500000000000003	7.870600632E-4	-3.776000257E-2	1.309337115E-2
3.56	-9.305914284E-4	-5.907105822E-2	1.420313651E-2
3.5700000000000003	-9.341661118E-4	-7.665571711E-2	1.298648451E-2
3.58	-2.873281466E-3	-9.013931310E-2	1.065884101E-2
3.59	-3.917402308E-3	-7.817889878E-2	8.880331682E-3
3.6	-1.823698705E-3	-6.267888169E-2	5.487415134E-3
3.61	-2.370656016E-3	-5.223411493E-2	2.214706154E-3
3.62	-3.354625900E-3	-4.187739271E-2	-3.800530308E-4
3.63	-2.140230743E-4	-3.127288002E-2	-7.256498413E-4
3.64	5.139607353E-4	-2.137048345E-2	-2.733087243E-3
3.65	1.159164456E-3	-3.277744103E-3	-4.205270122E-3
3.66	3.258673436E-3	4.992580192E-3	-5.085559552E-3
3.67	3.566559517E-3	3.218300541E-3	-4.614915819E-3
3.68	6.311961343E-4	-4.952696842E-3	-2.938905308E-3
3.69	-3.498248783E-4	-1.451588529E-2	-2.529687316E-3
3.7	-2.192749406E-3	-2.613474894E-2	-2.013873927E-3
3.71	-5.718823612E-3	-3.855336294E-2	-2.052369400E-3
3.72	-3.352880226E-3	-5.027672335E-2	-1.775135850E-4
3.73	-2.690786517E-3	-6.318538307E-2	-5.807937769E-4
3.74	-3.099050233E-3	-7.391824930E-2	-1.080226934E-3
3.75	-1.476333554E-3	-8.188148442E-2	-1.175394607E-3
3.7600000000000002	-2.369620976E-4	-9.894188746E-2	3.640025598E-4
3.77	-2.397320371E-3	-1.194216462E-1	-8.619675289E-6
3.7800000000000002	1.487965063E-4	-1.369470539E-1	5.835460001E-4
3.79	2.483419406E-3	-1.552721624E-1	2.367625328E-3
3.8000000000000003	4.416012167E-4	-1.755790912E-1	4.350273440E-3
3.81	-9.244699710E-5	-1.954503343E-1	6.318542671E-3
3.8200000000000003	-9.129666769E-4	-2.167914470E-1	6.653775661E-3
3.83	-4.386797975E-3	-2.359756469E-1	6.653775661E-3
3.84	-4.170865254E-3	-2.480065413E-1	6.653775661E-3
3.85	-2.343064297E-3	-2.562756298E-1	6.653775661E-3
3.86	-4.607569167E-3	-2.581685041E-1	6.653775661E-3
3.87	-3.285068192E-3	-2.513625047E-1	6.653775661E-3
3.88	-3.905422079E-3	-2.364639630E-1	6.653775661E-3
3.89	-4.015291618E-3	-2.144792710E-1	4.923239035E-3
3.9	-3.128261734E-3	-1.820073711E-1	3.826819934E-3
3.91	-1.264776963E-3	-1.474357849E-1	4.607981549E-3
3.92	7.090264642E-4	-1.091989217E-1	5.595372016E-3
3.93	-9.024332167E-4	-7.599182999E-2	4.785056841E-3
3.94	-1.580673139E-4	-4.787501620E-2	2.891578052E-3
3.95	-2.824247857E-3	-2.933280778E-2	4.570496933E-3
3.96	-3.033559978E-3	-1.707453703E-2	4.703775708E-3
3.97	-2.505835822E-4	-1.264981657E-2	2.848053985E-3
3.98	-1.037095875E-4	-1.524703371E-2	-6.199908581E-5
3.99	-1.041661364E-4	-2.480641257E-2	-2.081254800E-3
4.0	8.262163238E-4	-3.655906272E-2	-3.105989843E-3
4.01	-1.048431726E-3	-5.123743209E-2	-4.093239386E-3
4.0200000000000005	-1.094166119E-3	-6.118455851E-2	-5.080489733E-3
4.03	8.293414017E-4	-6.613019503E-2	-5.096224036E-3
4.04	1.395227801E-3	-6.727004772E-2	-5.116202336E-3
4.05	1.669755481E-3	-4.438316203E-2	-2.896224048E-3
4.0600000000000005	6.855599515E-4	-3.155364742E-2	-2.896224048E-3
4.07	6.247036539E-4	-1.764915180E-2	-2.854882959E-3
4.08	-1.228894648E-3	1.162423698E-3	-9.083037721E-4
4.09	6.206575203E-4	2.286154114E-2	4.377580066E-5
4.1	-3.667412833E-4	4.480997381E-2	4.377580066E-5
4.11	-1.104865212E-3	7.223352632E-2	9.360102432E-5
4.12	2.729984505E-3	9.607860947E-2	9.667002416E-4
4.13	4.446546610E-3	1.227126225E-1	1.080911317E-4
4.14	2.605833742E-3	1.491109257E-1	1.166640768E-3
4.15	2.999962293E-3	1.726993090E-1	2.983775649E-3
4.16	7.161476300E-3	1.954631238E-1	3.155954493E-3
4.17	3.678360268E-3	2.186719987E-1	4.943775673E-3
4.18	4.858024577E-3	2.369822135E-1	5.143180589E-3
4.19	6.954914707E-3	2.508637037E-1	6.883775660E-3
4.2	2.584659345E-3	2.582430565E-1	6.883775660E-3
4.21	2.574583992E-3	2.622625130E-1	6.882525856E-3
4.22	2.694240823E-3	2.609554372E-1	7.003506448E-3
4.23	3.672836333E-3	2.579761493E-1	7.715375159E-3
4.24	4.803130968E-3	2.495939501E-1	6.720863650E-3
4.25	6.159468165E-3	2.384468953E-1	6.042316491E-3
4.26	4.323705754E-3	2.215992726E-1	6.696511387E-3
4.2700000000000005	3.816409737E-3	2.049019558E-1	5.715944771E-3
4.28	5.260678556E-3	1.842050185E-1	5.067161536E-3
4.29	4.082661500E-3	1.608068501E-1	5.871932166E-3
4.3	2.848076743E-3	1.396200387E-1	5.487695194E-3
4.3100000000000005	3.829962614E-3	1.170466546E-1	3.901783007E-3
4.32	1.271226577E-3	9.273151289E-2	3.893775780E-3
4.33	4.879742312E-4	7.145337873E-2	3.893775780E-3
4.34	2.789131867E-4	5.321808601E-2	3.240800335E-3
4.3500000000000005	-2.621639428E-4	3.957926044E-2	4.951940068E-4
4.36	4.858338509E-4	3.475298283E-2	-1.247801715E-3
4.37	9.637245308E-4	3.561428858E-2	-1.996224459E-3
4.38	1.709759579E-3	4.318808367E-2	-2.491127584E-3
4.39	2.761705927E-4	5.372766841E-2	-4.473115541E-3
4.4	2.195138086E-3	6.697193134E-2	-5.665528703E-3
4.41	1.207887992E-3	8.109008525E-2	-4.413066382E-3
4.42	4.958338339E-4	9.152293727E-2	-2.996224251E-3
4.43	4.958338339E-4	9.425745767E-2	-2.996224251E-3
4.44	7.827266007E-4	9.003093038E-2	-2.999181958E-3
4.45	1.465833816E-3	7.739111985E-2	-2.412023165E-3
4.46	8.571325048E-4	5.408151403E-2	-7.418732962E-4
4.47	-1.737389716E-3	2.412955259E-2	2.453768026E-4
4.48	-4.082061602E-3	-1.034716276E-2	2.760739337E-4
4.49	-3.084737492E-3	-4.871266602E-2	-7.167955500E-4
4.5	-3.090973309E-3	-8.659791368E-2	-5.622440200E-5
4.51	-3.702655078E-3	-1.213390696E-1	-5.274724604E-5
4.5200000000000005	-3.120177402E-3	-1.498251173E-1	6.533382119E-4
4.53	-5.094677498E-3	-1.730131202E-1	2.282656635E-3
4.54	-5.619154130E-3	-1.898891643E-1	4.004992316E-3
4.55	-3.644654130E-3	-2.005585725E-1	5.494019734E-3
4.5600000000000005	-3.178297087E-3	-2.054913610E-1	4.887623375E-3
4.57	-3.615345119E-3	-2.057696615E-1	5.662596712E-3
4.58	-2.424166095E-3	-2.050617009E-1	6.857772194E-3
4.59	-2.420095585E-3	-2.025512841E-1	6.468935451E-3
4.6000000000000005	-3.628504078E-3	-1.978678286E-1	6.706097359E-3
4.61	-4.099714671E-3	-1.917781651E-1	7.035390707E-3
4.62	-2.814827228E-3	-1.841057264E-1	5.493114619E-3
4.63	-3.369799643E-3	-1.737155841E-1	5.366053329E-3
4.64	-2.924495071E-3	-1.592132600E-1	5.492986992E-3
4.65	-2.816731773E-3	-1.434901970E-1	5.400857340E-3
4.66	-3.354166192E-3	-1.247386164E-1	6.393591493E-3
4.67	-3.801904177E-3	-1.026282920E-1	6.471373681E-3
4.68	-4.304690230E-3	-8.065511486E-2	5.029881550E-3
4.69	-3.812976043E-3	-5.861769629E-2	4.008587671E-3
4.7	-3.289280140E-3	-3.913416447E-2	4.013775762E-3
4.71	-2.798023221E-3	-2.369659881E-2	3.527632859E-3
4.72	-2.304166113E-3	-1.378689346E-2	5.664217441E-4
4.73	-1.803445213E-3	-8.869097377E-3	-1.365503499E-3
4.74	-8.213784868E-4	-7.944414329E-3	-1.394195412E-3
4.75	1.452829077E-4	-1.099210808E-2	-2.896666569E-3
4.76	1.107722970E-3	-1.538547736E-2	-2.781117377E-3
4.7700000000000005	2.074895612E-3	-2.087794753E-2	-2.396099825E-3
4.78	1.436101426E-3	-2.664304131E-2	-2.309098506E-3
4.79	1.457998017E-6	-3.040439349E-2	-2.954976027E-3
4.8	-9.857921052E-4	-3.162622941E-2	-3.826224145E-3
4.8100000000000005	-1.414166135E-3	-2.931013265E-2	-2.702769229E-3
4.82	-1.414166135E-3	-2.245487730E-2	-1.575781010E-4
4.83	-1.414166135E-3	-8.962944882E-3	-6.328529012E-5
4.84	-8.333854143E-4	1.008179764E-2	-1.457004957E-3
4.8500000000000005	1.478643737E-4	3.183344194E-2	-9.813214207E-5
4.86	1.714247119E-3	5.901592013E-2	4.724204849E-4
4.87	2.469685511E-3	9.158375898E-2	-5.249033684E-4
4.88	3.666729443E-3	1.254246269E-1	9.106748530E-4
4.89	3.778705280E-3	1.623193624E-1	3.235438125E-3
4.9	4.651961458E-3	1.967327149E-1	2.698532664E-3
4.91	4.086016469E-3	2.255349768E-1	5.129313176E-3
4.92	4.018249832E-3	2.500711325E-1	6.850736146E-3
4.93	4.349239962E-3	2.674054588E-1	6.837181919E-3
4.94	3.685729915E-3	2.744957603E-1	7.480544079E-3
4.95	4.009778368E-3	2.752916496E-1	9.779092817E-3
4.96	4.319016934E-3	2.667373078E-1	8.054792675E-3
4.97	2.958261023E-3	2.523164876E-1	7.472225145E-3
4.98	2.338868610E-3	2.321647161E-1	7.766810414E-3
4.99	3.018635509E-3	2.084702030E-1	7.066895473E-3
5.0	3.291607345E-3	1.869530103E-1	6.766662481E-3
5.01	3.968721029E-3	1.686973790E-1	6.756587371E-3
5.0200000000000005	4.221308371E-3	1.513033008E-1	6.746512953E-3
5.03	3.474828019E-3	1.382295796E-1	6.736438969E-3
5.04	2.464766682E-3	1.275286869E-1	7.452610805E-3
5.05	3.657856408E-3	1.178056738E-1	6.962795027E-3
5.0600000000000005	3.382411797E-3	1.105709755E-1	6.713775658E-3
5.07	2.380204952E-3	1.040909698E-1	6.706143047E-3
5.08	1.375052939E-3	9.455261888E-2	5.193045166E-3
5.09	1.900702351E-3	8.483795280E-2	3.973342816E-3
5.1000000000000005	2.100121594E-3	7.389487922E-2	3.753775645E-3
5.11	1.318682941E-3	6.422268835E-2	6.372420054E-4
5.12	3.314327912E-4	5.584542328E-2	-9.606254171E-4
5.13	1.358338517E-4	5.008468702E-2	-1.164302004E-3
5.14	1.358338517E-4	4.653043653E-2	-1.965251010E-3
5.15	1.440601705E-4	4.736366531E-2	-5.338668342E-4
5.16	9.510620784E-4	4.910486927E-2	-9.997534608E-4
5.17	2.950279413E-4	5.082258438E-2	-3.454183681E-4
5.18	-6.753230108E-4	5.498553051E-2	-1.946740614E-4
5.19	2.746596873E-6	5.213534317E-2	-1.962245367E-4
5.2	-1.513789862E-3	4.707301068E-2	1.489196851E-3
5.21	-1.784166065E-3	3.428450280E-2	9.138150817E-4
5.22	-9.183446711E-4	1.609307928E-2	-7.330032026E-5
5.23	-8.029869917E-4	-1.126717130E-2	6.682182837E-4
5.24	-2.538693084E-3	-4.224805604E-2	2.527197676E-3
5.25	-1.866236031E-3	-7.854364120E-2	2.752744827E-3
5.26	-2.650516816E-3	-1.136691323E-1	4.526477119E-3
5.2700000000000005	-2.735047599E-3	-1.503368319E-1	3.829278581E-3
5.28	-3.635031654E-3	-1.827106949E-1	4.653833852E-3
5.29	-2.796783795E-3	-2.092621859E-1	6.550007351E-3
5.3	-4.554897838E-3	-2.280488109E-1	8.533847998E-3
5.3100000000000005	-5.606782252E-3	-2.379778661E-1	9.586391606E-3
5.32	-4.724663666E-3	-2.426588723E-1	7.793240386E-3
5.33	-7.466849703E-3	-2.367316175E-1	7.703339626E-3
5.34	-4.750965992E-3	-2.274301198E-1	8.648296349E-3
5.3500000000000005	-4.644166049E-3	-2.122902479E-1	9.645258363E-3
5.36	-4.614808133E-3	-1.930720574E-1	7.765519668E-3
5.37	-4.604306206E-3	-1.708314140E-1	7.733635498E-3
5.38	-4.574364314E-3	-1.504647392E-1	6.770188372E-3
5.39	-2.603231171E-3	-1.252431859E-1	6.774710652E-3
5.4	-1.630350551E-3	-1.059618328E-1	7.755683441E-3
5.41	-3.538583034E-3	-8.677325942E-2	6.793775650E-3
5.42	-2.563703272E-3	-7.163279911E-2	6.794007036E-3
5.43	-2.513934693E-3	-6.044154105E-2	6.804081024E-3
5.44	-1.701353048E-3	-5.147324902E-2	6.777358268E-3
5.45	-5.388379773E-3	-4.913608770E-2	5.853775663E-3
5.46	-4.422056484E-3	-4.695395780E-2	5.699249682E-3
5.47	-4.266607575E-3	-4.766183105E-2	2.686850085E-3
5.48	-2.368512064E-3	-4.967324399E-2	-9.392164081E-4
5.49	-1.392086855E-3	-5.156784235E-2	-1.697525263E-5
5.5	-3.441535585E-4	-5.251043535E-2	-1.878861255E-4
5.51	1.435833867E-3	-5.206437926E-2	-2.074319280E-3
5.5200000000000005	1.243888418E-3	-4.726029174E-2	-2.775252671E-3
5.53	-4.324787546E-4	-4.249633256E-2	-1.006224092E-3
5.54	4.358338427E-4	-3.085252251E-2	-1.006224092E-3
5.55	4.346375595E-4	-2.052234854E-2	-8.889881228E-4
5.5600000000000005	4.258338597E-4	-6.723536492E-3	-1.507099458E-4
5.57	2.954419278E-4	7.059013123E-3	-1.006224092E-3
5.58	-5.455845704E-4	2.070875248E-2	-8.672159270E-4
5.59	-7.005567467E-4	3.422630233E-2	-1.726145633E-4
5.6000000000000005	-1.380525323E-3	5.194329575E-2	-8.525832691E-4
5.61	-3.965587241E-4	7.060698423E-2	1.346669536E-4
5.62	7.421158896E-4	9.390470481E-2	7.822034263E-4
5.63	2.884848281E-3	1.166935793E-1	4.763696756E-4
5.64	5.077571736E-3	1.440845526E-1	3.235387751E-3
5.65	4.253894531E-3	1.711652721E-1	5.189988492E-3
5.66	4.044511734E-3	2.001257878E-1	6.554466715E-3
5.67	3.446205211E-3	2.284650238E-1	5.964147142E-3
5.68	3.991876486E-3	2.501003224E-1	6.300183765E-3
5.69	2.992317246E-3	2.655550670E-1	5.416443764E-3
5.7	2.666117067E-3	2.731901643E-1	7.681466512E-3
5.71	4.161066705E-3	2.708124987E-1	7.437808989E-3
5.72	3.897506981E-3	2.609642143E-1	6.681316981E-3
5.73	3.378969228E-3	2.426475101E-1	6.673775662E-3
5.74	3.835169447E-3	2.173388544E-1	6.671169019E-3
5.75	3.350493039E-3	1.871479135E-1	6.661095038E-3
5.76	3.767618861E-3	1.566099756E-1	6.651021056E-3
5.7700000000000005	2.478602623E-3	1.254593853E-1	6.643775660E-3
5.78	1.629020231E-3	1.020520131E-1	6.928271889E-3
5.79	2.710999887E-3	8.510294696E-2	7.328941755E-3
5.8	1.713675814E-3	7.313750234E-2	6.038615988E-3
5.8100000000000005	7.194777933E-4	6.614773583E-2	4.067937642E-3
5.82	4.583385616E-5	6.479835893E-2	3.027382003E-3
5.83	4.583385616E-5	6.876070731E-2	2.731206980E-3
5.84	4.583385616E-5	7.407979695E-2	4.223213777E-4
5.8500000000000005	1.045216734E-3	7.869106372E-2	-2.362244688E-4
5.86	2.958838702E-3	8.164017000E-2	-9.217461128E-4
5.87	3.285130044E-3	8.362018119E-2	-2.196224119E-3
5.88	3.174020391E-3	8.282825153E-2	-2.196224119E-3
5.89	1.908394805E-3	7.760313382E-2	-2.925246437E-3
5.9	1.524072472E-3	7.011494183E-2	-4.527985199E-3
5.91	9.119663616E-4	6.047712930E-2	-4.757212431E-3
5.92	1.410731448E-4	4.913011009E-2	-3.383579072E-3
5.93	-1.423815067E-3	3.606279205E-2	-2.589890164E-3
5.94	-1.599159050E-3	2.149043831E-2	-2.374392009E-3
5.95	-1.822168625E-3	4.272573295E-3	-3.998916668E-4
5.96	-3.361104493E-3	-1.424024087E-2	-9.178895318E-4
5.97	-3.482805794E-3	-3.630428161E-2	-2.330758152E-3
5.98	-2.905389068E-3	-6.069159109E-2	-7.861533507E-4
5.99	-2.452382663E-3	-8.414389681E-2	-2.362244688E-4
6.0	-2.344200667E-3	-1.088010315E-1	6.529178036E-4
6.01	-1.965913375E-3	-1.334996378E-1	8.201334241E-4
6.0200000000000005	-1.822308694E-3	-1.557798583E-1	1.145673960E-3
6.03	-2.393086317E-3	-1.770674271E-1	3.180097236E-3
6.04	-2.342979084E-3	-1.956036129E-1	3.698608862E-3
6.05	-3.801209923E-3	-2.091264011E-1	4.184751628E-3
6.0600000000000005	-4.794165981E-3	-2.197048850E-1	5.176983601E-3
6.07	-5.284586244E-3	-2.263394425E-1	6.164195901E-3
6.08	-5.256309906E-3	-2.274986604E-1	6.151309163E-3
6.09	-5.778507162E-3	-2.232011129E-1	6.193752052E-3
6.1000000000000005	-6.688332564E-3	-2.149598295E-1	6.151827020E-3
6.11	-5.608989733E-3	-2.026699233E-1	5.699128338E-3
6.12	-4.673311286E-3	-1.869761159E-1	5.177322052E-3
6.13	-4.114032358E-3	-1.655073698E-1	4.739276985E-3
6.140000000000001	-3.112209595E-3	-1.411419175E-1	5.836538072E-3
6.15	-3.210849409E-3	-1.165767745E-1	5.607811667E-3
6.16	-3.046114763E-3	-9.120865477E-2	5.330380461E-3
6.17	-2.602571535E-3	-6.821744605E-2	5.185644170E-3
6.18	-2.582421680E-3	-5.047428880E-2	4.204175632E-3
6.19	-2.562272454E-3	-3.709320902E-2	3.220989794E-3
6.2	-1.964129870E-3	-2.914464168E-2	1.643703540E-3
6.21	-2.165357600E-3	-2.877512845E-2	8.698705320E-4
6.22	-1.933460921E-3	-3.510319377E-2	2.692391519E-4
6.23	-2.159709908E-3	-4.551293061E-2	-1.935341164E-3
6.24	-1.898812757E-3	-5.758079888E-2	-3.036224183E-3
6.25	-2.154159838E-3	-6.928912360E-2	-3.656217904E-3
6.26	-1.870475001E-3	-7.738912076E-2	-3.999757866E-3
6.2700000000000005	-1.524166134E-3	-8.108588548E-2	-3.348742802E-3
6.28	-8.759747533E-4	-7.693045108E-2	-2.344804297E-3
6.29	-1.192919408E-3	-6.428204564E-2	-2.661665523E-3
6.3	-2.023072154E-4	-4.585513610E-2	-3.642153550E-3
6.3100000000000005	-9.003772918E-4	-2.262802646E-2	-3.286282230E-3
6.32	-1.733915557E-4	4.700550732E-3	-1.621627176E-3
6.33	1.781054889E-3	3.307547266E-2	-1.023210055E-3
6.34	2.351714488E-3	6.262181287E-2	-1.725130178E-3
6.3500000000000005	2.338700186E-3	9.040274593E-2	-2.023357811E-3
6.36	3.020557478E-3	1.134702509E-1	-2.040639166E-3
6.37	3.970303921E-3	1.347692249E-1	-6.408753137E-4
6.38	2.769428921E-3	1.539420925E-1	5.899116401E-4
6.390000000000001	1.517622199E-3	1.702220638E-1	8.363450755E-4
6.4	2.721826197E-3	1.836426862E-1	2.289768177E-3
6.41	3.198254616E-3	1.971872635E-1	4.251699501E-3
6.42	2.438059888E-3	2.072445007E-1	3.966001748E-3
6.43	2.198105244E-3	2.169446120E-1	5.998264769E-3
6.44	1.423375141E-3	2.238624912E-1	6.655973048E-3
6.45	3.521552188E-3	2.283530045E-1	6.645899067E-3
6.46	3.350776457E-3	2.293120864E-1	6.643775660E-3
6.47	3.137809252E-3	2.239301777E-1	6.635751107E-3
6.48	3.905194746E-3	2.147269579E-1	5.848217666E-3
6.49	4.870395306E-3	2.001132615E-1	5.655603158E-3
6.5	3.404780690E-3	1.819697240E-1	6.453685935E-3
6.51	3.846403519E-3	1.608352156E-1	6.623775662E-3
6.5200000000000005	3.149438442E-3	1.375904137E-1	7.446586859E-3
6.53	2.968893842E-3	1.139934892E-1	5.952122922E-3
6.54	1.274122888E-3	9.379066515E-2	5.653775677E-3
6.55	1.498902068E-4	7.587728162E-2	3.964652502E-3
6.5600000000000005	8.415696623E-4	6.264594461E-2	3.693775747E-3
6.57	1.155379372E-4	5.443551845E-2	4.552837612E-3
6.58	1.701937905E-3	5.135179775E-2	2.074839923E-3
6.59	1.052134279E-3	5.156799776E-2	-8.873231918E-4
6.6000000000000005	1.808957196E-3	5.561169241E-2	-1.206224497E-3
6.61	1.384354653E-4	6.182317542E-2	-2.094454988E-3
6.62	1.719355011E-3	6.819358385E-2	-3.072553265E-3
6.63	1.876622467E-3	7.357472096E-2	-2.253507015E-3
6.640000000000001	1.866548503E-3	7.708076718E-2	-3.996158031E-3
6.65	9.391115071E-4	7.759956343E-2	-2.292140592E-3
6.66	8.663988976E-4	7.336359010E-2	-3.090845233E-3
6.67	8.468130632E-4	6.517707472E-2	-3.136713967E-3
6.68	-7.427317727E-5	4.934736034E-2	-1.257672145E-3
6.69	-1.045077080E-4	3.047260083E-2	-1.176223990E-3
6.7	8.204127830E-4	4.981897439E-3	-2.130000350E-3
6.71	-2.978658316E-3	-2.055065230E-2	-3.117250620E-3
6.72	-3.034405249E-3	-5.357732146E-2	-1.199671186E-3
6.73	-3.014254185E-3	-8.937450750E-2	-2.161860375E-3
6.74	-2.997007188E-3	-1.224380753E-1	-2.162540373E-4
6.75	-3.954035474E-3	-1.516542750E-1	-2.160432811E-4
6.76	-4.876557229E-3	-1.780274860E-1	8.060691550E-4
6.7700000000000005	-3.879233083E-3	-1.985469222E-1	3.644413243E-3
6.78	-2.914491837E-3	-2.102822216E-1	1.861501015E-3
6.79	-2.962953775E-3	-2.189268457E-1	5.692563460E-3
6.8	-3.940269263E-3	-2.189737935E-1	6.577672421E-3
6.8100000000000005	-4.863070332E-3	-2.166914722E-1	5.706917994E-3
6.82	-4.842919625E-3	-2.070707460E-1	6.623775662E-3
6.83	-4.686410733E-3	-1.990996001E-1	6.623775662E-3
6.84	-2.918058721E-3	-1.883584340E-1	6.549883057E-3
6.8500000000000005	-3.802478332E-3	-1.777529001E-1	5.663775660E-3
6.86	-3.781407821E-3	-1.688503584E-1	5.753876416E-3
6.87	-3.946163383E-3	-1.591817942E-1	6.547279520E-3
6.88	-5.366736720E-3	-1.500671910E-1	5.778516668E-3
6.890000000000001	-3.045568622E-3	-1.381148092E-1	6.542927255E-3
6.9	-5.490057812E-3	-1.246410515E-1	5.803016972E-3
6.91	-4.714203732E-3	-1.124580474E-1	6.539865707E-3
6.92	-5.517342485E-3	-9.695833598E-2	5.571398894E-3
6.93	-5.324518574E-3	-8.203992517E-2	4.594200742E-3
6.94	-4.135859578E-3	-6.621561683E-2	3.466983759E-3
6.95	-2.459402109E-3	-5.528482747E-2	1.805363794E-3
6.96	-2.269737603E-3	-4.711375366E-2	1.651008345E-3
6.97	-1.107345779E-3	-4.105264635E-2	1.531903675E-4
6.98	6.677998284E-4	-4.165212763E-2	-3.084414085E-3
6.99	1.257418964E-3	-4.663407210E-2	-3.076224115E-3
7.0	4.438753907E-4	-5.316053623E-2	-3.074265643E-3
7.01	3.926533258E-5	-5.962468406E-2	-3.064190226E-3
7.0200000000000005	-1.305507207E-3	-6.539100499E-2	-2.641013755E-3
7.03	-5.241661098E-4	-6.767964678E-2	-1.297843659E-3
7.04	-7.452175354E-4	-6.462585315E-2	-2.277275463E-3
7.05	-1.501836471E-3	-5.449621677E-2	-2.805592911E-3
7.0600000000000005	-1.489358923E-3	-3.678232423E-2	-2.046223815E-3
7.07	-9.909639863E-4	-1.254367807E-2	-2.046223815E-3
7.08	7.260400481E-4	1.668619046E-2	-1.798570743E-3
7.09	1.708035918E-3	4.891428423E-2	-1.078850936E-3
7.1000000000000005	2.410431665E-3	8.318244395E-2	-1.088925088E-3
7.11	2.656690002E-3	1.158059815E-1	-8.325928908E-4
7.12	3.330135720E-3	1.471539537E-1	1.301332913E-4
7.13	3.880067022E-3	1.739122342E-1	1.104430788E-3
7.140000000000001	4.652207768E-3	1.973702259E-1	2.074592593E-3
7.15	3.262762328E-3	2.142779292E-1	3.352713053E-3
7.16	2.330749805E-3	2.246920137E-1	5.317351889E-3
7.17	9.438363151E-4	2.287725020E-1	6.338164149E-3
7.18	2.901673481E-3	2.288836411E-1	5.673775643E-3
7.19	3.862353608E-3	2.236981547E-1	5.997150417E-3
7.2	3.198947833E-3	2.145407354E-1	6.633775663E-3
7.21	3.175279759E-3	2.027691274E-1	6.289009448E-3
7.22	3.148649744E-3	1.895644321E-1	6.002200021E-3
7.23	2.765569378E-3	1.738188011E-1	6.623775662E-3
7.24	2.118353895E-3	1.584247237E-1	6.260999045E-3
7.25	2.468158655E-3	1.432560972E-1	5.653775677E-3
7.26	1.912603294E-3	1.279031360E-1	6.412040770E-3
7.2700000000000005	5.002915515E-4	1.147538495E-1	6.830896729E-3
7.28	1.469392717E-3	1.047599973E-1	5.653775677E-3
7.29	2.027610907E-3	9.639115142E-2	6.052585662E-3
7.3	1.601476847E-3	8.947885999E-2	6.627961086E-3
7.3100000000000005	1.843639498E-3	8.493628823E-2	5.803191762E-3
7.32	2.092156814E-3	8.204505636E-2	2.985088599E-3
7.33	1.394533602E-3	7.913619469E-2	1.200104964E-3
7.34	1.916869690E-3	7.585037885E-2	8.797753716E-4
7.3500000000000005	1.459257415E-3	7.261027239E-2	-6.428006811E-4
7.36	1.370398573E-3	6.953014231E-2	-1.171593028E-3
7.37	9.683854557E-4	6.645192995E-2	-2.088377268E-3
7.38	-5.938729571E-5	6.212328611E-2	-3.589772136E-3
7.390000000000001	-5.416613986E-5	5.671742647E-2	-3.620572435E-3
7.4	-5.321437455E-4	5.092100712E-2	-3.111296359E-3
7.41	-5.340119095E-4	4.366760763E-2	-2.125915587E-3
7.42	-4.416613939E-5	3.647453640E-2	-2.141187010E-3
7.43	-3.901581672E-5	2.834344959E-2	-2.601492562E-3
7.44	4.673669410E-4	1.422496538E-2	-2.121000033E-3
7.45	-1.135198630E-3	-3.481113286E-3	-3.159986110E-3
7.46	-1.384471690E-3	-2.380597895E-2	-3.559659157E-3
7.47	-1.086490968E-3	-5.139233418E-2	-1.504564969E-3
7.48	-1.433029665E-3	-8.124017334E-2	-1.254018617E-3
7.49	-1.536956905E-3	-1.124545889E-1	-1.599028923E-3
7.5	-3.064099998E-3	-1.461630874E-1	-6.262570563E-4
7.51	-3.892678723E-3	-1.776919105E-1	1.482436364E-3
7.5200000000000005	-3.878348401E-3	-2.050122707E-1	3.298094987E-3
7.53	-4.439858618E-3	-2.255573041E-1	4.281253647E-3
7.54	-4.243407240E-3	-2.389395995E-1	4.093017068E-3
7.55	-3.832083459E-3	-2.428117105E-1	4.285817279E-3
7.5600000000000005	-3.818050856E-3	-2.389733536E-1	5.866243787E-3
7.57	-3.201435196E-3	-2.265081229E-1	6.023423112E-3
7.58	-2.817902872E-3	-2.098356829E-1	5.653775677E-3
7.59	-3.416196538E-3	-1.894053104E-1	5.653775677E-3
7.6000000000000005	-3.744929508E-3	-1.667823869E-1	6.275754523E-3
7.61	-2.456286329E-3	-1.441232114E-1	5.358869416E-3
7.62	-1.757605430E-3	-1.266326615E-1	5.316722312E-3
7.63	-3.041290191E-3	-1.139283222E-1	6.303972408E-3
7.640000000000001	-3.680748727E-3	-1.036177968E-1	7.291222468E-3
7.65	-2.995797069E-3	-9.660455371E-2	6.290956157E-3
7.66	-3.325692781E-3	-9.287840121E-2	5.670633826E-3
7.67	-4.268856651E-3	-9.142895555E-2	4.994424246E-3
7.68	-3.846546037E-3	-8.914648428E-2	4.014180253E-3
7.69	-2.836154144E-3	-8.889014934E-2	2.343152410E-3
7.7	-2.522700436E-3	-8.698753675E-2	1.780931003E-3
7.71	-3.902041183E-3	-8.417955988E-2	-1.049802590E-3
7.72	-3.696657626E-3	-8.080981920E-2	-2.844523872E-3
7.73	-2.701200021E-3	-7.722972684E-2	-3.098847098E-3
7.74	-1.706457933E-3	-7.440855176E-2	-3.088772730E-3
7.75	5.796069665E-6	-6.968239493E-2	-3.086224284E-3
7.76	4.782343049E-4	-6.429069191E-2	-3.823381517E-3
7.7700000000000005	4.681603052E-4	-5.745561533E-2	-3.304217246E-3
7.78	-2.779280896E-4	-4.793851584E-2	-3.068476463E-3
7.79	2.645195214E-4	-3.705760859E-2	-2.299716639E-3
7.8	-1.064027588E-3	-2.372429550E-2	-2.086223748E-3
7.8100000000000005	-1.466195102E-3	-6.750351012E-3	-4.429709070E-3
7.82	-2.236487833E-3	1.171202264E-2	-5.026224341E-3
7.83	7.422432296E-4	3.263844301E-2	-4.230562329E-3
7.84	-1.220486162E-4	5.876506960E-2	-3.251380025E-3
7.8500000000000005	-4.741661482E-4	8.495501786E-2	-3.084492789E-3
7.86	1.144281718E-3	1.115097163E-1	-3.912132946E-3
7.87	2.265400995E-3	1.344571101E-1	-7.937906870E-4
7.88	3.222556224E-3	1.601208660E-1	-1.847161555E-4
7.890000000000001	1.678591174E-3	1.833292716E-1	-1.025562898E-3
7.9	1.387194058E-3	2.042012031E-1	-3.195240411E-4
7.91	2.231091119E-3	2.188036223E-1	-1.862243674E-4
7.92	4.078276579E-3	2.298991393E-1	6.662091478E-4
7.930000000000001	4.315833631E-3	2.345474132E-1	4.266523820E-3
7.94	4.315833631E-3	2.348625563E-1	3.829118059E-3
7.95	4.306822479E-3	2.276486849E-1	3.723775696E-3
7.96	2.525081503E-3	2.160470153E-1	4.614151862E-3
7.97	2.336674375E-3	2.013569406E-1	2.908523058E-3
7.98	1.421724010E-3	1.800537192E-1	3.648652086E-3
7.99	3.151471988E-3	1.590851624E-1	3.723775696E-3
8.0	2.347694311E-3	1.354805053E-1	4.633770955E-3
8.01	2.266923008E-3	1.144839275E-1	4.684320365E-3
8.02	2.237241240E-3	9.652724220E-2	4.683775742E-3
8.03	2.207019129E-3	8.435533654E-2	2.791608530E-3
8.040000000000001	1.237944610E-3	7.737484545E-2	1.765244329E-3
8.05	1.196080936E-3	7.529594018E-2	2.689557389E-3
8.06	1.166353299E-3	7.900259294E-2	3.676807388E-3
8.07	4.037075658E-3	8.684089257E-2	-1.972521315E-4
8.08	2.100795299E-3	9.370161419E-2	-1.213755798E-3
8.09	2.070847277E-3	1.015326306E-1	-3.181110198E-3
8.1	1.097769549E-3	1.082151877E-1	-4.146224346E-3
8.11	2.026351761E-3	1.070834402E-1	-4.204079974E-3
8.120000000000001	1.055833860E-3	1.040948204E-1	-7.085951133E-3
8.13	1.055487568E-3	9.527331769E-2	-6.974413148E-3
8.14	1.005067356E-3	8.161663642E-2	-4.094617094E-3
8.15	2.887226899E-5	6.503607488E-2	-3.291557592E-3
8.16	-8.741661206E-4	4.399524359E-2	-5.918700373E-3
8.17	-9.366137393E-4	2.301944093E-2	-3.209315229E-3
8.18	-1.913072164E-3	1.499427889E-3	-4.126224007E-3
8.19	-2.956974047E-3	-1.722567424E-2	-4.126224007E-3
8.2	-4.646727085E-3	-3.682090594E-2	-4.126224007E-3
8.21	-3.539013513E-3	-5.716098279E-2	-4.035057492E-3
8.22	-1.950112833E-3	-7.719097857E-2	-3.156223979E-3
8.23	-3.469584113E-3	-9.619459827E-2	-2.943820457E-3
8.24	-1.713002935E-3	-1.158614910E-1	-9.782314644E-4
8.25	-1.824175456E-3	-1.374141600E-1	6.325292249E-4
8.26	-2.927225940E-3	-1.598599661E-1	1.592659204E-4
8.27	-4.601395777E-3	-1.767910556E-1	2.442282150E-3
8.28	-4.439687298E-3	-1.945675856E-1	1.039814846E-3
8.290000000000001	-3.741498063E-3	-2.067971516E-1	3.014578583E-3
8.3	-4.552557300E-3	-2.149715177E-1	4.516124261E-3
8.31	-4.539117879E-3	-2.179982773E-1	3.860359996E-3
8.32	-4.510652789E-3	-2.147525748E-1	5.026322539E-3
8.33	-4.668076054E-3	-2.041012144E-1	6.278633301E-3
8.34	-5.253704959E-3	-1.887910382E-1	4.693775725E-3
8.35	-4.824115560E-3	-1.706686424E-1	4.501822052E-3
8.36	-5.754084379E-3	-1.509277193E-1	4.327694979E-3
8.370000000000001	-3.802766705E-3	-1.308849361E-1	6.665903790E-3
8.38	-4.873744083E-3	-1.101819715E-1	6.462373214E-3
8.39	-3.528118400E-3	-9.304152507E-2	5.936832478E-3
8.4	-3.560895367E-3	-7.908904787E-2	5.774898102E-3
8.41	-1.301742088E-3	-7.108863817E-2	3.498870838E-3
8.42	-1.531516514E-3	-6.642902954E-2	5.001737111E-3
8.43	-2.239019674E-3	-6.542717229E-2	2.806348808E-3
8.44	-1.962171466E-3	-6.712016885E-2	2.297725826E-3
8.45	-1.492713193E-3	-7.083924768E-2	6.025071779E-4
8.46	-2.449741453E-3	-7.628169120E-2	-1.192071923E-3
8.47	-3.128426279E-3	-8.249193618E-2	-4.010484360E-3
8.48	-2.822650643E-3	-8.769519271E-2	-3.124621996E-3
8.49	-1.825389362E-3	-8.949982100E-2	-1.920482337E-3
8.5	-1.434189702E-3	-8.782467392E-2	-4.569364530E-3
8.51	-1.483432618E-3	-8.237327346E-2	-6.223424247E-3
8.52	-1.474071248E-4	-7.170019084E-2	-5.609275071E-3
8.53	-1.541661330E-4	-5.646939413E-2	-2.946224149E-3
8.540000000000001	-4.863354830E-4	-3.579191154E-2	-3.942732136E-3
8.55	-1.134166145E-3	-1.170401060E-2	-5.207181212E-3
8.56	-4.441614759E-4	1.391111270E-2	-4.619767397E-3
8.57	4.618121331E-4	4.199489084E-2	-5.535814763E-3
8.58	1.934192202E-4	7.148223202E-2	-4.919910479E-3
8.59	8.020733981E-4	1.002614773E-1	-5.670788565E-3
8.6	1.167771496E-3	1.253749593E-1	-6.166182823E-3
8.61	1.378842400E-3	1.459681275E-1	-4.221786409E-3
8.620000000000001	1.935161591E-3	1.626627829E-1	-3.054192079E-3
8.63	2.882364588E-3	1.762363636E-1	-2.278986436E-3
8.64	2.102496765E-3	1.865304352E-1	8.029242937E-5
8.65	2.657422067E-3	1.939734696E-1	1.377392834E-3
8.66	2.222126981E-3	1.984570941E-1	1.218922786E-3
8.67	2.496126631E-3	2.009033829E-1	3.049453247E-3
8.68	3.581405339E-3	2.015514563E-1	4.703775708E-3
8.69	3.566827018E-3	2.005113784E-1	3.816609150E-3
8.700000000000001	3.098097335E-3	1.981115245E-1	3.177780201E-3
8.71	2.541879814E-3	1.927213943E-1	3.247943861E-3
8.72	1.590219238E-3	1.842828563E-1	2.255968409E-3
8.73	5.410345431E-4	1.718917631E-1	2.204107920E-3
8.74	1.003669503E-3	1.573997369E-1	2.713775922E-3
8.75	1.001029111E-3	1.414514193E-1	2.713775922E-3
8.76	1.470261620E-3	1.235483397E-1	3.698249268E-3
8.77	2.415446567E-3	1.061557171E-1	3.674802179E-3
8.78	2.375150621E-3	8.971855577E-2	2.718946602E-3
8.790000000000001	1.831357207E-3	7.757348518E-2	1.181814597E-3
8.8	1.350515079E-3	7.103679538E-2	-2.162241302E-4
8.81	8.173465376E-4	6.742809335E-2	3.122630778E-4
8.82	3.603662730E-4	6.851792361E-2	-8.382219816E-4
8.83	3.558338389E-4	7.389048605E-2	-3.252507765E-3
8.84	3.558338389E-4	8.232553015E-2	-5.227008056E-3
8.85	3.558338389E-4	9.072620553E-2	-5.522891932E-3
8.86	9.091975487E-4	9.770451262E-2	-5.090459733E-3
8.870000000000001	1.773874870E-4	1.012492649E-1	-6.224670361E-3
8.88	5.129749000E-4	9.997802577E-2	-5.871343847E-3
8.89	1.305833808E-3	9.131605978E-2	-5.647032882E-3
8.9	7.057252493E-4	7.648877943E-2	-6.030161751E-3
8.91	3.096981728E-4	5.605188767E-2	-4.823629612E-3
8.92	-9.050507119E-4	3.128957869E-2	-5.283317769E-3
8.93	-1.637882482E-3	3.129957319E-3	-5.410426501E-3
8.94	-2.257311557E-3	-2.695887786E-2	-5.669369003E-3
8.950000000000001	-3.238184600E-3	-5.785838569E-2	-6.663108542E-3
8.96	-4.208853414E-3	-8.634044975E-2	-7.016223755E-3
8.97	-4.517841321E-3	-1.130491481E-1	-5.739482054E-3
8.98	-4.470890479E-3	-1.364429758E-1	-3.778475013E-3
8.99	-3.767797471E-3	-1.557230818E-1	-2.480230308E-3
9.0	-4.080560935E-3	-1.704674837E-1	-2.839835561E-3
9.01	-4.363530106E-3	-1.824966611E-1	-1.808010845E-3
9.02	-4.340260766E-3	-1.913869589E-1	1.595368572E-4
9.03	-4.320112839E-3	-1.956886982E-1	7.537758984E-4
9.040000000000001	-4.299962676E-3	-1.978847823E-1	2.145709066E-3
9.05	-3.583840360E-3	-1.955353773E-1	1.307474461E-3
9.06	-4.710604951E-3	-1.914768811E-1	1.464244866E-3
9.07	-5.214869530E-3	-1.844973305E-1	1.016014177E-3
9.08	-3.739346430E-3	-1.735771360E-1	2.203799453E-3
9.09	-4.658801597E-3	-1.630789731E-1	2.721247830E-3
9.1	-4.389562016E-3	-1.515990095E-1	2.731321887E-3
9.11	-4.860560861E-3	-1.403969895E-1	3.480655428E-3
9.120000000000001	-5.815130794E-3	-1.287934614E-1	5.229565672E-3
9.13	-5.233937944E-3	-1.176616683E-1	4.168780509E-3
9.14	-4.204125167E-3	-1.089821124E-1	2.972952434E-3
9.15	-5.496412098E-3	-1.010143350E-1	3.547610016E-3
9.16	-5.854208394E-3	-9.392904827E-2	4.544934139E-3
9.17	-5.005224031E-3	-8.768894213E-2	1.589676243E-3
9.18	-3.973911087E-3	-8.099436587E-2	5.235944641E-5
9.19	-2.962821833E-3	-7.756290799E-2	-2.540975936E-3
9.200000000000001	-1.971998561E-3	-7.651942787E-2	-3.057936382E-3
9.21	-2.606987228E-3	-7.340740365E-2	-3.047861537E-3
9.22	-1.102085327E-3	-7.391806247E-2	-3.029350149E-3
9.23	-8.026770885E-4	-7.447871595E-2	-5.528440138E-3
9.24	-7.955798889E-4	-7.574333418E-2	-5.957637445E-3
9.25	3.723944921E-5	-7.543029102E-2	-5.098837002E-3
9.26	-1.537385014E-3	-7.397995140E-2	-4.957489467E-3
9.27	-1.766549222E-3	-6.817909528E-2	-5.810642925E-3
9.28	-1.755283696E-3	-5.837895746E-2	-5.917342107E-3
9.290000000000001	-8.764390916E-4	-4.211390352E-2	-6.793951697E-3
9.3	-1.650250779E-3	-2.165543284E-2	-5.116959494E-3
9.31	-8.426786559E-4	5.262575737E-3	-4.033842411E-3
9.32	-7.449861965E-4	3.359609933E-2	-6.654299430E-3
9.33	2.855599389E-3	6.807527773E-2	-4.184832853E-3
9.34	2.222374037E-3	9.997692101E-2	-3.070748303E-3
9.35	3.049010269E-3	1.348730151E-1	-4.867792167E-3
9.36	2.148774253E-3	1.619465236E-1	-3.157387131E-3
9.370000000000001	2.076731252E-3	1.843894037E-1	-1.203267982E-3
9.38	4.876817582E-3	2.029065387E-1	-2.078761645E-3
9.39	4.006199066E-3	2.109796414E-1	-2.248499770E-4
9.4	3.956287199E-3	2.129288464E-1	-1.857710306E-4
9.41	3.936139272E-3	2.098766858E-1	-1.960718499E-4
9.42	3.906069879E-3	1.999173665E-1	7.661416723E-4
9.43	1.916773610E-3	1.868048945E-1	-2.057611382E-4
9.44	1.912562871E-3	1.746769862E-1	7.637048644E-4
9.450000000000001	2.827305623E-3	1.644592994E-1	7.821593382E-4
9.46	9.068380694E-4	1.533459646E-1	2.713775922E-3
9.47	1.816556227E-3	1.413615862E-1	2.713775922E-3
9.48	8.454670899E-4	1.333094911E-1	2.713775922E-3
9.49	8.349523858E-4	1.280253752E-1	2.714216649E-3
9.5	8.652544114E-4	1.209178012E-1	2.774225922E-3
9.51	1.774653306E-3	1.150063443E-1	3.704366001E-3
9.52	1.753841114E-3	1.116915508E-1	3.648678923E-3
9.53	1.795227696E-3	1.055671355E-1	2.589820350E-3
9.540000000000001	2.584612362E-3	1.000990758E-1	8.641849122E-4
9.55	1.750908560E-3	9.479386611E-2	1.514120505E-3
9.56	2.437639175E-3	9.003150281E-2	-1.249361495E-3
9.57	3.658812133E-4	8.798222908E-2	-2.327916653E-3
9.58	-1.909020591E-3	8.530342570E-2	-4.075114176E-3
9.59	5.821993281E-4	8.353395669E-2	-4.065040112E-3
9.6	-1.434295208E-4	8.179870815E-2	-4.178218607E-3
9.61	6.945021681E-4	8.011235550E-2	-4.894390520E-3
9.620000000000001	5.508929093E-4	7.786423082E-2	-4.172570544E-3
9.63	-2.741661387E-4	7.203808984E-2	-5.004744129E-3
9.64	-2.741661387E-4	6.417401888E-2	-5.147075396E-3
9.65	-2.741661387E-4	5.312702595E-2	-5.806592272E-3
9.66	-4.392432318E-4	3.754778634E-2	-4.984522555E-3
9.67	-1.071786205E-3	1.858897074E-2	-5.152158336E-3
9.68	-4.537222458E-4	-4.718154219E-3	-6.147631099E-3
9.69	-1.242240752E-3	-2.740865905E-2	-6.757537043E-3
9.700000000000001	-1.624288737E-3	-5.531514115E-2	-6.164286228E-3
9.71	-3.381253915E-3	-8.516634374E-2	-6.551675171E-3
9.72	-4.125571636E-3	-1.135766719E-1	-4.591545998E-3
9.73	-3.865241163E-3	-1.396153617E-1	-3.300703868E-3
9.74	-3.280042029E-3	-1.614399097E-1	-3.863458484E-3
9.75	-3.767112676E-3	-1.810479961E-1	-2.888652865E-3
9.76	-3.238839399E-3	-1.977842223E-1	-1.437537102E-3
9.77	-4.205941578E-3	-2.082863550E-1	1.028069690E-3
9.78	-5.170489907E-3	-2.133682946E-1	1.753775690E-3
9.790000000000001	-5.607362917E-3	-2.122640505E-1	1.489640673E-3
9.8	-4.868681831E-3	-2.066111865E-1	7.637756952E-4
9.81	-4.569750690E-3	-1.952520336E-1	1.312894215E-3
9.82	-3.835497432E-3	-1.797926434E-1	2.713775922E-3
9.83	-4.092717519E-3	-1.628562184E-1	2.423371217E-3
9.84	-4.152343361E-3	-1.455487766E-1	2.031647621E-3
9.85	-3.069947585E-3	-1.284890459E-1	2.716889348E-3
9.86	-3.711416263E-3	-1.140966756E-1	2.723775718E-3
9.870000000000001	-3.987481054E-3	-1.030145515E-1	3.046659377E-3
9.88	-3.943744216E-3	-9.724724181E-2	3.060031084E-3
9.89	-2.921241449E-3	-9.601884485E-2	2.091307546E-3
9.9	-3.523714144E-3	-9.879282610E-2	2.747259685E-3
9.91	-3.835148208E-3	-1.019258640E-1	2.757334730E-3
9.92	-4.063607163E-3	-1.059288493E-1	1.346933391E-3
9.93	-3.043475118E-3	-1.096268664E-1	-1.495794319E-3
9.94	-2.406604344E-3	-1.106330325E-1	-2.098662177E-3
9.950000000000001	-2.012533879E-3	-1.088716238E-1	-2.456291635E-3
9.96	-1.781335918E-3	-1.059257909E-1	-3.423394119E-3
9.97	-2.360162555E-3	-9.963592452E-2	-4.394560131E-3
9.98	-1.954484050E-3	-9.037831279E-2	-4.972145783E-3
9.99	-9.672339864E-4	-8.020138804E-2	-4.550987282E-3
10.0	-3.941661444E-4	-6.785624602E-2	-4.794588942E-3
10.01	-3.941661444E-4	-5.523362890E-2	-5.500491814E-3
10.02	-8.228486135E-4	-4.128353653E-2	-4.936224308E-3
10.03	-9.381648655E-4	-2.588519946E-2	-4.936224308E-3
10.040000000000001	-4.032138225E-4	-1.048572938E-2	-5.822898454E-3
10.05	-4.141661104E-4	5.614133495E-3	-6.445637515E-3
10.06	-4.141661104E-4	2.413270345E-2	-5.458387194E-3
10.07	-4.094203293E-4	4.544524000E-2	-4.940969824E-3
10.08	-8.716838033E-4	7.007266307E-2	-4.478706034E-3
10.09	-4.198847436E-4	9.642249577E-2	-3.506423703E-3
10.1	2.016702906E-3	1.213911609E-1	-3.026161040E-3
10.11	3.455660641E-3	1.459197214E-1	-2.557111757E-3
10.120000000000001	3.425599119E-3	1.679165724E-1	-1.594966170E-3
10.13	3.400260049E-3	1.867978430E-1	-1.136606560E-3
10.14	3.891295797E-3	2.011965362E-1	3.964878352E-4
10.15	3.811912724E-3	2.089114900E-1	1.778436525E-3
10.16	3.335007240E-3	2.110928337E-1	2.304268421E-3
10.17	3.314857585E-3	2.074117694E-1	3.286115188E-3
10.18	3.834292674E-3	1.981669008E-1	2.627918672E-3
10.19	3.139765783E-3	1.845945919E-1	2.858570245E-3
10.200000000000001	2.818349099E-3	1.685933301E-1	3.708065035E-3
10.21	2.641582316E-3	1.523036690E-1	4.270673245E-3
10.22	1.635827582E-3	1.358672155E-1	4.683775742E-3
10.23	1.789433632E-3	1.218789039E-1	4.096445370E-3
10.24	2.163818634E-3	1.093971228E-1	4.877264360E-3
10.25	2.137587296E-3	1.013688878E-1	5.663775660E-3
10.26	2.119677676E-3	9.709246619E-2	5.663775660E-3
10.27	1.499051241E-3	9.507294696E-2	6.268097999E-3
10.28	2.336222532E-3	9.529089111E-2	4.786672029E-3
10.290000000000001	2.401545352E-3	9.802641596E-2	3.710154812E-3
10.3	1.397023644E-3	1.017797557E-1	3.081418256E-3
10.31	1.672433343E-3	1.053405753E-1	1.460995513E-3
10.32	1.352274918E-3	1.094830500E-1	7.969788492E-4
10.33	1.656690138E-3	1.127010129E-1	8.104513264E-4
10.34	1.955585089E-3	1.125430489E-1	1.658172278E-4
10.35	2.594172846E-3	1.076773296E-1	-1.325749610E-4
10.36	1.536710586E-3	1.006713833E-1	-7.885378522E-4
10.370000000000001	9.188607305E-4	8.959686683E-2	-1.762613050E-3
10.38	2.322686176E-4	7.348275057E-2	-6.679524583E-4
10.39	-5.416613986E-5	5.478026687E-2	-1.474828065E-3
10.4	-5.416613986E-5	3.362077636E-2	-1.331111717E-3
10.41	-7.593708037E-4	1.038026339E-2	-1.056224193E-3
10.42	-1.016821596E-3	-1.251776581E-2	-1.775991342E-3
10.43	-1.726234067E-3	-3.714078939E-2	-1.309321555E-3
10.44	-1.966673999E-3	-5.938970929E-2	-3.294877599E-4
10.450000000000001	-3.424731126E-3	-8.189289634E-2	-8.429934779E-4
10.46	-3.863602649E-3	-1.030186006E-1	-3.450609362E-4
10.47	-3.815587611E-3	-1.203923870E-1	2.136754137E-3
10.48	-3.032953976E-3	-1.368557331E-1	2.788195568E-3
10.49	-2.798438017E-3	-1.534468576E-1	3.546583723E-3
10.5	-3.556212181E-3	-1.670524904E-1	4.523759917E-3
10.51	-3.746154085E-3	-1.783241754E-1	5.500936054E-3
10.52	-3.727994228E-3	-1.876677454E-1	6.478112194E-3
10.53	-3.707843732E-3	-1.958349354E-1	5.863977220E-3
10.540000000000001	-3.695930538E-3	-1.989960007E-1	6.474381644E-3
10.55	-4.483564740E-3	-1.994526556E-1	6.643775660E-3
10.56	-4.627399197E-3	-1.946340122E-1	6.643775660E-3
10.57	-5.427621189E-3	-1.838483608E-1	7.464145512E-3
10.58	-4.712494572E-3	-1.713102189E-1	8.449853019E-3
10.59	-5.373199421E-3	-1.552601400E-1	9.437235907E-3
10.6	-4.636072129E-3	-1.403825813E-1	1.042450757E-2
10.61	-2.761937322E-3	-1.214779623E-1	9.695793619E-3
10.620000000000001	-3.361606938E-3	-1.071529505E-1	9.573775630E-3
10.63	-3.456363405E-3	-9.707941196E-2	9.573775630E-3
10.64	-1.685756150E-3	-8.925384817E-2	9.573775630E-3
10.65	-3.230978533E-3	-8.603752859E-2	8.686793137E-3
10.66	-3.386787190E-3	-9.041739761E-2	7.708528560E-3
10.67	-1.571691707E-3	-9.634468302E-2	6.722138644E-3
10.68	-2.313778897E-3	-1.059194038E-1	5.744162908E-3
10.69	-4.188395550E-3	-1.138855700E-1	4.766986788E-3
10.700000000000001	-3.362511800E-3	-1.217971954E-1	5.636585352E-3
10.71	-3.285173521E-3	-1.249387093E-1	3.841996982E-3
10.72	-1.398523801E-3	-1.240379295E-1	3.753347434E-3
10.73	-2.240166430E-3	-1.190718780E-1	2.818129513E-3
10.74	-2.264446182E-3	-1.093463973E-1	4.698579649E-3
10.75	-1.284786336E-3	-9.432179716E-2	1.884193025E-3
10.76	6.403151715E-4	-7.077263911E-2	3.777595988E-3
10.77	1.610300881E-3	-4.946426315E-2	1.865132829E-3
10.78	1.602763865E-3	-2.551813979E-2	2.833775718E-3
10.790000000000001	-3.264548203E-4	2.032054731E-3	2.833684424E-3
10.8	1.579471483E-3	2.455985797E-2	2.807578894E-3
10.81	6.055945767E-4	5.251601076E-2	1.866744395E-3
10.82	5.961470871E-4	7.428342610E-2	2.834159612E-3
10.83	6.805670275E-4	9.558606731E-2	3.773001354E-3
10.84	2.490636363E-3	1.149029494E-1	3.843709443E-3
10.85	1.555298581E-3	1.315897842E-1	5.598328582E-3
10.86	1.604464336E-3	1.480085005E-1	3.912721049E-3
10.870000000000001	2.705085904E-3	1.614569197E-1	6.663090946E-3
10.88	5.191259434E-3	1.694532191E-1	6.653016964E-3
10.89	2.455001135E-3	1.778361031E-1	6.643775660E-3
10.9	2.620818872E-3	1.796868950E-1	6.732628168E-3
10.91	4.182648076E-3	1.795882995E-1	7.718897623E-3
10.92	2.609407375E-3	1.774150500E-1	8.387037588E-3
10.93	4.332443100E-3	1.722947348E-1	6.855289892E-3
10.94	4.067411131E-3	1.654787025E-1	8.475768420E-3
10.950000000000001	2.199298357E-3	1.583767555E-1	7.864290315E-3
10.96	1.465637032E-3	1.494731244E-1	9.441268195E-3
10.97	2.431313013E-3	1.392532994E-1	8.593775619E-3
10.98	3.242833149E-3	1.270964644E-1	8.742306739E-3
10.99	3.069846127E-3	1.185070770E-1	9.583775613E-3
11.0	2.392522522E-3	1.105937996E-1	9.422138847E-3
11.01	3.180667788E-3	1.023385751E-1	8.605497620E-3
11.02	3.150444896E-3	9.653689253E-2	8.437739755E-3
11.03	2.755265638E-3	9.141565796E-2	7.452234701E-3
11.040000000000001	1.143888267E-3	8.999438200E-2	6.286341400E-3
11.05	1.523581242E-3	9.099821037E-2	4.725795188E-3
11.06	3.049552247E-3	9.359128278E-2	4.530674304E-3
11.07	2.598530178E-3	9.853063458E-2	3.342979349E-3
11.08	1.051347778E-3	1.013656723E-1	1.828261818E-3
11.09	1.705451256E-3	1.048969075E-1	1.848409746E-3
11.1	3.220489934E-3	1.049061805E-1	1.636631055E-3
11.11	1.212508861E-3	1.021306266E-1	1.162777598E-3
11.120000000000001	1.928212180E-3	9.445474709E-2	1.682425413E-3
11.13	1.646997082E-3	8.102005628E-2	9.790049132E-4
11.14	6.577384551E-4	6.157945990E-2	4.695196720E-4
11.15	4.889913500E-4	3.802839037E-2	-1.226946503E-3
11.16	1.057588972E-3	8.059953446E-3	-1.658251535E-3
11.17	-1.031255697E-3	-2.209480642E-2	-9.591344757E-4
11.18	-1.021181264E-3	-5.216738006E-2	-6.766901464E-4
11.19	-1.607800625E-3	-8.308157777E-2	-3.022212188E-4
11.200000000000001	-2.941630281E-3	-1.107859653E-1	-3.945052044E-4
11.21	-3.215711745E-3	-1.344572784E-1	1.546114835E-3
11.22	-3.525974723E-3	-1.528637480E-1	2.857212037E-3
11.23	-2.844098443E-3	-1.674017226E-1	2.837064109E-3
11.24	-2.817306358E-3	-1.757043175E-1	3.153043903E-3
11.25	-2.800661606E-3	-1.791519774E-1	3.436839384E-3
11.26	-2.787007215E-3	-1.805575207E-1	3.140978675E-3
11.27	-2.412480275E-3	-1.780282167E-1	4.118154759E-3
11.28	-2.141993862E-3	-1.740785064E-1	4.361038394E-3
11.290000000000001	-2.364030781E-3	-1.716360514E-1	4.478840950E-3
11.3	-2.495981008E-3	-1.686231520E-1	5.310117609E-3
11.31	-3.672318192E-3	-1.644232622E-1	5.086859235E-3
11.32	-3.642094212E-3	-1.588695273E-1	6.064096809E-3
11.33	-3.611869464E-3	-1.527236570E-1	6.639676810E-3
11.34	-4.800114337E-3	-1.464513337E-1	6.633775663E-3
11.35	-5.634803460E-3	-1.404113167E-1	6.633775663E-3
11.36	-4.466882806E-3	-1.319696792E-1	7.057213357E-3
11.370000000000001	-4.426586951E-3	-1.249627392E-1	7.183087789E-3
11.38	-3.081206536E-3	-1.185907401E-1	6.633775663E-3
11.39	-2.762015885E-3	-1.120419506E-1	5.747635346E-3
11.4	-3.873100512E-3	-1.072495554E-1	4.231183283E-3
11.41	-2.854938957E-3	-1.053751873E-1	3.708467993E-3
11.42	-2.305101104E-3	-1.054881719E-1	3.251449263E-3
11.43	-2.734307745E-3	-1.063427284E-1	1.799930378E-3
11.44	-2.245913581E-3	-1.071476908E-1	1.280359581E-3
11.450000000000001	-1.234186578E-3	-1.078702180E-1	3.267635220E-4
11.46	-1.705222287E-3	-1.085027888E-1	-1.622343906E-3
11.47	-1.660393116E-3	-1.076193967E-1	-1.577313212E-3
11.48	-6.582067383E-4	-1.033670301E-1	-1.581336705E-3
11.49	-1.841661286E-4	-9.456456755E-2	-2.025652829E-3
11.5	-7.094140013E-4	-8.314508140E-2	-1.485616691E-3
11.51	-6.262344568E-4	-6.785461091E-2	-2.085786507E-3
11.52	-7.139991951E-4	-4.752967634E-2	-2.430882545E-3
11.53	-1.148582931E-3	-2.398219851E-2	-2.533376489E-3
11.540000000000001	-4.101809410E-5	2.345441620E-3	-3.520626471E-3
11.55	8.001026788E-4	2.812250951E-2	-3.951955188E-3
11.56	1.364736695E-3	5.584769170E-2	-3.962029339E-3
11.57	1.769954746E-3	8.470739474E-2	-4.548256147E-3
11.58	2.337420683E-3	1.122384368E-1	-3.223601054E-3
11.59	1.538190232E-3	1.372857743E-1	-2.655117197E-3
11.6	1.939743733E-3	1.562575048E-1	-2.470371528E-3
11.61	2.677301061E-3	1.706178556E-1	-1.503176145E-3
11.620000000000001	2.053121745E-3	1.804428881E-1	8.294783451E-5
11.63	4.146316723E-3	1.856263884E-1	1.812607920E-4
11.64	4.308721112E-3	1.856476223E-1	1.068089151E-3
11.65	4.210873899E-3	1.809495264E-1	1.132839111E-3
11.66	3.891024973E-3	1.723357745E-1	2.702365241E-3
11.67	3.525967588E-3	1.623199157E-1	3.064813151E-3
11.68	2.852925048E-3	1.508599118E-1	2.070867063E-3
11.69	1.848724309E-3	1.387840488E-1	3.070910445E-3
11.700000000000001	1.518988234E-3	1.280831495E-1	3.703775730E-3
11.71	2.180112051E-3	1.207147200E-1	3.703775730E-3
11.72	3.147214114E-3	1.167686447E-1	5.074510737E-3
11.73	3.407563577E-3	1.144298945E-1	4.971158092E-3
11.74	2.688824435E-3	1.145785942E-1	6.083511213E-3
11.75	3.091305151E-3	1.160981566E-1	3.822519867E-3
11.76	1.919808362E-3	1.162844478E-1	2.019407742E-3
11.77	2.092836343E-3	1.159062438E-1	1.761140424E-3
11.78	2.330958168E-3	1.163740145E-1	2.500121464E-3
11.790000000000001	3.032017644E-3	1.153141353E-1	5.600983601E-4
11.8	2.499550161E-3	1.121370851E-1	-1.510504045E-4
11.81	7.619490803E-4	1.085084619E-1	-1.632447717E-3
11.82	1.056240029E-3	1.026093023E-1	-1.312609299E-3
11.83	1.268023317E-3	9.780928502E-2	-1.836030199E-3
11.84	1.257949333E-3	9.295227375E-2	-2.803132829E-3
11.85	2.019844502E-3	8.655862068E-2	-3.770234973E-3
11.86	6.414784425E-4	7.991946775E-2	-4.745369578E-3
11.870000000000001	2.477261769E-4	7.173720601E-2	-3.339010374E-3
11.88	1.039484071E-3	6.176677383E-2	-5.363538624E-3
11.89	4.150074910E-4	4.590665992E-2	-5.078885607E-3
11.9	2.375039351E-4	2.731347512E-2	-7.355221495E-3
11.91	-5.709408871E-4	6.043115873E-3	-5.375476240E-3
11.92	9.818861353E-5	-1.806186342E-2	-4.906223800E-3
11.93	-5.836970650E-4	-4.752947687E-2	-6.590941725E-3
11.94	-1.561004838E-3	-7.684113348E-2	-6.039385549E-3
11.950000000000001	-3.381972188E-3	-1.048494476E-1	-5.071020789E-3
11.96	-2.747872043E-3	-1.319324378E-1	-2.392644336E-3
11.97	-3.456006067E-3	-1.524852083E-1	-2.062772268E-3
11.98	-3.537400085E-3	-1.718435309E-1	-3.353680471E-4
11.99	-3.507174602E-3	-1.832503163E-1	-1.025940483E-3
12.0	-3.476952086E-3	-1.885547659E-1	6.426804248E-4
12.01	-4.342968142E-3	-1.923018495E-1	-9.869908409E-4
12.02	-2.598464019E-3	-1.870142757E-1	6.510362319E-4
12.030000000000001	-3.336328300E-3	-1.799615582E-1	7.944824581E-4
12.040000000000001	-2.458076099E-3	-1.700190867E-1	7.844084438E-4
12.05	-3.300664930E-3	-1.580405846E-1	1.699717124E-3
12.06	-3.316098849E-3	-1.460463065E-1	3.619061310E-3
12.07	-2.355091636E-3	-1.349693957E-1	3.704184985E-3
12.08	-4.160419169E-3	-1.267689239E-1	3.703775730E-3
12.09	-3.230657363E-3	-1.197220203E-1	4.658323151E-3
12.1	-2.222739996E-3	-1.155174072E-1	3.721978155E-3
12.11	-3.143549080E-3	-1.114958513E-1	4.672823387E-3
12.120000000000001	-3.114317336E-3	-1.133440754E-1	4.683775742E-3
12.13	-3.087569161E-3	-1.142717236E-1	4.693775725E-3
12.14	-4.002346088E-3	-1.171799042E-1	4.661486683E-3
12.15	-2.079642328E-3	-1.198158914E-1	1.745759174E-3
12.16	-3.953127042E-3	-1.232935918E-1	7.685830550E-4
12.17	-3.912497479E-3	-1.257003287E-1	-2.409621159E-4
12.18	-3.822582440E-3	-1.275862959E-1	-2.115408880E-3
12.19	-2.748797015E-3	-1.246977457E-1	-2.142463480E-3
12.200000000000001	-9.175162177E-4	-1.206144483E-1	-3.109018148E-3
12.21	-1.823534975E-3	-1.124586491E-1	-3.943104486E-3
12.22	-1.677361371E-3	-1.057913905E-1	-2.935706520E-3
12.23	1.258338570E-4	-9.344363571E-2	-2.081790409E-3
12.24	1.258338570E-4	-7.686059282E-2	-2.975372198E-3
12.25	1.258338570E-4	-5.969250322E-2	-3.238797251E-3
12.26	1.268351160E-4	-4.295140265E-2	-5.905223060E-3
12.27	1.358338517E-4	-2.043993614E-2	-5.896224167E-3
12.280000000000001	1.358338517E-4	-4.746827462E-4	-5.897374643E-3
12.290000000000001	3.755881624E-4	2.110790206E-2	-5.906224336E-3
12.3	1.841308527E-3	4.258176748E-2	-5.780260264E-3
12.31	4.034869194E-4	6.403743377E-2	-4.668571213E-3
12.32	2.085833880E-3	8.595179488E-2	-3.129433491E-3
12.33	2.082792774E-3	1.068015221E-1	-3.830251750E-3
12.34	2.217337154E-3	1.270405344E-1	-3.021008243E-3
12.35	3.171150910E-3	1.454574752E-1	-2.887566992E-3
12.36	3.940601569E-3	1.611086776E-1	-2.270629794E-3
12.370000000000001	3.912197800E-3	1.740349918E-1	-2.563539151E-3
12.38	3.892049567E-3	1.811123037E-1	-1.681160803E-4
12.39	3.871906586E-3	1.848790969E-1	2.066636050E-4
12.4	3.650776929E-3	1.837511218E-1	1.373813448E-3
12.41	3.046809627E-3	1.775274354E-1	2.163050040E-4
12.42	3.576882137E-3	1.670313212E-1	1.753775690E-3
12.43	2.791306805E-3	1.542793366E-1	1.973334949E-3
12.44	3.446689996E-3	1.391921276E-1	2.494702918E-3
12.450000000000001	5.163541998E-3	1.244975990E-1	2.452744812E-3
12.46	2.915114607E-3	1.122756647E-1	4.683775742E-3
12.47	9.515769225E-4	1.027271212E-1	4.182050295E-3
12.48	1.913521515E-3	9.648171892E-2	2.465548168E-3
12.49	2.334938145E-3	9.600934131E-2	2.011962539E-3
12.5	1.870212802E-3	9.787542332E-2	2.736558768E-3
12.51	2.547263089E-3	1.054242875E-1	2.186676788E-3
12.52	2.801338319E-3	1.124646832E-1	5.094786540E-4
12.530000000000001	3.456817674E-3	1.191167348E-1	1.213056622E-4
12.540000000000001	3.121629433E-3	1.255192970E-1	-6.863956399E-4
12.55	2.403216181E-3	1.287859235E-1	-3.740782636E-3
12.56	2.992457372E-3	1.286707586E-1	-2.730155824E-3
12.57	3.945689096E-3	1.242276017E-1	-2.359949742E-3
12.58	3.245704824E-3	1.178409807E-1	-3.647861170E-3
12.59	2.880799989E-3	1.070452960E-1	-4.581190386E-3
12.6	1.534958621E-3	9.469974300E-2	-3.919174481E-3
12.61	6.150215996E-4	7.748416676E-2	-3.902624074E-3
12.620000000000001	5.231060381E-4	5.854144306E-2	-4.612625586E-3
12.63	-3.406261075E-4	3.819322463E-2	-6.213511725E-3
12.64	-4.755984732E-4	1.661290065E-2	-5.702609877E-3
12.65	-1.284586397E-3	-5.683848712E-3	-4.649800482E-3
12.66	-6.741661344E-4	-2.686294153E-2	-5.850194536E-3
12.67	-2.817688688E-4	-4.814403497E-2	-6.653154706E-3
12.68	-5.033129398E-4	-7.085567913E-2	-6.619265357E-3
12.69	-1.229029983E-3	-9.231496803E-2	-5.311360353E-3
12.700000000000001	-6.498988540E-4	-1.116011029E-1	-4.640179585E-3
12.71	-1.482028475E-3	-1.302138716E-1	-3.404690570E-3
12.72	-2.128227146E-3	-1.455044548E-1	-3.128498398E-3
12.73	-2.435211432E-3	-1.574532328E-1	-2.065203986E-3
12.74	-3.043124137E-3	-1.668135379E-1	-1.638006245E-3
12.75	-2.930208902E-3	-1.727898397E-1	-1.580099675E-3
12.76	-3.420027790E-3	-1.753657463E-1	-1.663801867E-3
12.77	-3.389805890E-3	-1.754454270E-1	-1.161010835E-3
12.780000000000001	-2.883235842E-3	-1.730874099E-1	-1.171084598E-3
12.790000000000001	-3.311772920E-3	-1.673320202E-1	2.698635509E-4
12.8	-4.264125025E-3	-1.597230490E-1	2.244778440E-3
12.81	-4.223829171E-3	-1.496252811E-1	2.728691590E-3
12.82	-4.178375036E-3	-1.394912209E-1	2.218272920E-3
12.83	-4.128005225E-3	-1.302267597E-1	2.256528806E-3
12.84	-4.082941443E-3	-1.216704182E-1	3.243778850E-3
12.85	-4.031880078E-3	-1.151541966E-1	4.231112008E-3
12.86	-3.976887514E-3	-1.090187326E-1	3.619916281E-3
12.870000000000001	-3.390139631E-3	-1.049460261E-1	2.733775888E-3
12.88	-2.379404661E-3	-1.054162304E-1	2.739379425E-3
12.89	-1.921455569E-3	-1.079041467E-1	1.636637450E-3
12.9	-2.450569330E-3	-1.114132109E-1	7.995273267E-4
12.91	-1.700516972E-3	-1.163026983E-1	2.386042770E-4
12.92	-2.013087784E-3	-1.239752247E-1	-1.544219710E-4
12.93	-2.786240650E-3	-1.309640463E-1	-7.198367890E-4
12.94	-2.749969659E-3	-1.338694940E-1	-1.686938814E-3
12.950000000000001	-2.127980107E-3	-1.339732589E-1	-2.047855026E-3
12.96	-5.295400239E-4	-1.290114864E-1	-2.017632860E-3
12.97	-9.944793504E-4	-1.169028099E-1	-1.981139715E-3
12.98	-1.086007825E-3	-1.013897597E-1	-2.575347093E-3
12.99	-7.177460984E-4	-8.133954418E-2	-2.913384021E-3
13.0	-8.419293053E-5	-5.854116931E-2	-4.815627454E-3
13.01	2.624024000E-4	-2.986003283E-2	-5.202506024E-3
13.02	2.591902710E-4	-1.522217581E-3	-4.215153702E-3
13.030000000000001	9.074881530E-4	2.301875149E-2	-4.544596437E-3
13.040000000000001	1.884664329E-3	4.974406850E-2	-4.873016049E-3
13.05	2.188967716E-3	7.322236353E-2	-5.555962450E-3
13.06	2.852076577E-3	9.427093176E-2	-4.519858670E-3
13.07	1.771088141E-3	1.102198692E-1	-3.252879081E-3
13.08	1.873368789E-3	1.230949353E-1	-2.980399962E-3
13.09	2.141509845E-3	1.347587927E-1	-3.709583060E-3
13.1	2.114122562E-3	1.428771928E-1	-3.308700700E-3
13.11	3.509643111E-3	1.497305637E-1	-2.351630941E-3
13.120000000000001	3.996291765E-3	1.539147066E-1	-1.387217288E-3
13.13	2.501399692E-3	1.570611708E-1	-1.882170686E-3
13.14	2.719044786E-3	1.581274752E-1	-1.405479334E-3
13.15	3.663324718E-3	1.592533478E-1	-1.173831378E-3
13.16	3.117571855E-3	1.570281055E-1	3.218867295E-4
13.17	2.110137360E-3	1.528844591E-1	7.660187683E-4
13.18	4.156808093E-3	1.463409378E-1	2.298641110E-3
13.19	2.446343678E-3	1.375747722E-1	2.723775718E-3
13.200000000000001	2.591778384E-3	1.299221310E-1	2.723775718E-3
13.21	3.558910943E-3	1.219619986E-1	3.512958751E-3
13.22	3.713326247E-3	1.146917998E-1	4.508335767E-3
13.23	2.081809815E-3	1.083590238E-1	3.889965891E-3
13.24	1.717558659E-3	1.038080156E-1	3.722050801E-3
13.25	2.492273283E-3	1.019449453E-1	2.905592192E-3
13.26	4.246416207E-3	1.037573758E-1	1.926636226E-3
13.27	2.854662738E-3	1.069091954E-1	9.579344478E-4
13.280000000000001	3.344488064E-3	1.115134587E-1	-8.492554881E-4
13.290000000000001	1.754947569E-3	1.147930412E-1	-1.108928901E-3
13.3	3.160431677E-3	1.196556137E-1	-1.080058261E-3
13.31	3.370650557E-3	1.214346077E-1	-1.049836463E-3
13.32	1.609608474E-3	1.219080532E-1	-1.019614759E-3
13.33	1.367946195E-3	1.167166086E-1	-3.609927818E-3
13.34	1.356816028E-3	1.098494138E-1	-2.112666518E-3
13.35	2.228643510E-3	9.752218351E-2	-4.571020108E-3
13.36	2.306666687E-3	8.045366057E-2	-4.817889413E-3
13.370000000000001	2.296592419E-3	6.048916552E-2	-4.806982995E-3
13.38	1.382935988E-3	3.776715376E-2	-6.622704171E-3
13.39	1.297055293E-3	1.132718750E-2	-6.756223824E-3
13.4	3.684358254E-4	-1.433736622E-2	-6.765687229E-3
13.41	3.158338603E-4	-4.166159086E-2	-5.831575609E-3
13.42	-1.548740273E-3	-6.707422094E-2	-6.737733623E-3
13.43	-1.614479455E-3	-9.498031815E-2	-4.887315036E-3
13.44	-3.497989446E-3	-1.161243223E-1	-5.802298027E-3
13.450000000000001	-2.560848482E-3	-1.355894500E-1	-3.928420879E-3
13.46	-1.543388409E-3	-1.497041474E-1	-3.935858533E-3
13.47	-3.430876176E-3	-1.604727973E-1	-2.019548562E-3
13.48	-1.469549426E-3	-1.656587332E-1	-1.066337693E-3
13.49	-2.426446879E-3	-1.669239636E-1	-1.086615902E-3
13.5	-3.333495534E-3	-1.632360297E-1	-1.116633776E-3
13.51	-2.288978764E-3	-1.575943578E-1	-1.109330766E-3
13.52	-4.760644433E-4	-1.529243496E-1	-1.765767934E-4
13.530000000000001	-3.220649202E-3	-1.453797791E-1	-1.866510114E-4
13.540000000000001	-2.242659658E-3	-1.397910376E-1	-9.831024746E-5
13.55	-2.213013870E-3	-1.364514257E-1	1.923150782E-3
13.56	-2.318332566E-3	-1.342065186E-1	4.502000335E-3
13.57	-3.889808532E-3	-1.301691913E-1	1.885715428E-3
13.58	-1.376056547E-3	-1.307489347E-1	3.782138705E-3
13.59	-3.956805697E-3	-1.287825384E-1	4.598162690E-3
13.6	-3.224206884E-3	-1.277304115E-1	3.610912519E-3
13.61	-4.839966392E-3	-1.272952761E-1	2.624683992E-3
13.620000000000001	-3.918687554E-3	-1.249933465E-1	1.968536398E-3
13.63	-3.642288213E-3	-1.229878419E-1	3.485411189E-3
13.64	-1.891675907E-3	-1.217739807E-1	1.643003035E-3
13.65	-1.998157893E-3	-1.209926900E-1	5.365587507E-4
13.66	-2.407397684E-3	-1.188536996E-1	-8.804019854E-4
13.67	-1.758346137E-4	-1.208757479E-1	3.954051561E-4
13.68	-1.661582641E-3	-1.200544831E-1	-2.546267890E-3
13.69	-8.209330005E-4	-1.205096442E-1	-4.694528968E-3
13.700000000000001	-8.007850567E-4	-1.197050140E-1	-3.021152434E-3
13.71	-1.126483032E-3	-1.145243272E-1	-3.165618173E-3
13.72	-2.007150600E-3	-1.068168762E-1	-4.132720219E-3
13.73	9.884106204E-4	-9.608389385E-2	-4.724975821E-3
13.74	5.133412498E-6	-8.022160243E-2	-4.694917679E-3
13.75	-7.621053569E-4	-5.874888860E-2	-7.632208141E-3
13.76	-7.541661382E-4	-3.479726413E-2	-6.846223857E-3
13.77	-5.420081161E-4	-6.691600159E-3	-7.279379912E-3
13.780000000000001	4.296619185E-4	2.259179049E-2	-8.360852012E-3
13.790000000000001	1.647990292E-3	5.097040496E-2	-6.858582007E-3
13.8	3.140970062E-3	7.868525340E-2	-6.630327799E-3
13.81	3.120821993E-3	1.034259297E-1	-5.655657553E-3
13.82	3.350961263E-3	1.236409870E-1	-4.941384781E-3
13.83	3.787634472E-3	1.401537861E-1	-4.703957373E-3
13.84	2.772891842E-3	1.499901501E-1	-4.017141869E-3
13.85	2.312156742E-3	1.557166633E-1	-3.227631387E-3
13.86	2.987201697E-3	1.571635840E-1	-1.977928606E-3
13.870000000000001	3.240310386E-3	1.542643676E-1	-3.802893441E-3
13.88	3.587248768E-3	1.508750329E-1	-2.536282417E-3
13.89	2.565852791E-3	1.442142628E-1	-1.179323853E-3
13.9	2.485410346E-3	1.376376160E-1	-2.559849860E-4
13.91	3.464450206E-3	1.312149982E-1	1.106999591E-3
13.92	2.443549906E-3	1.249476622E-1	4.350523739E-4
13.93	1.765643405E-3	1.196631544E-1	2.409552602E-3
13.94	2.075559939E-3	1.158644717E-1	3.363637241E-3
13.950000000000001	3.029095702E-3	1.141743106E-1	2.379877723E-3
13.96	2.922627411E-3	1.125282305E-1	2.108568755E-3
13.97	2.016793949E-3	1.126458110E-1	2.737470130E-3
13.98	2.973822012E-3	1.137894966E-1	2.747544046E-3
13.99	3.550464512E-3	1.162396913E-1	2.004531376E-3
14.0	3.510168657E-3	1.198377514E-1	1.191485349E-3
14.01	3.082756033E-3	1.230106303E-1	6.244512753E-4
14.02	2.467702200E-3	1.250330034E-1	-7.296446035E-4
14.030000000000001	2.844972736E-3	1.262692227E-1	2.777534293E-4
14.040000000000001	2.974458014E-3	1.256679427E-1	4.630717489E-5
14.05	1.967059990E-3	1.233940515E-1	-1.903757465E-3
14.06	1.814558806E-3	1.193594675E-1	-2.561329067E-3
14.07	1.912194006E-3	1.114551390E-1	-2.407681961E-3
14.08	1.788914250E-3	1.031053717E-1	-3.369304329E-3
14.09	1.421713020E-3	9.304657690E-2	-3.887053556E-3
14.1	8.177777884E-4	7.906401367E-2	-4.784771102E-3
14.11	1.790220662E-3	6.341703457E-2	-6.285344168E-3
14.120000000000001	1.348819813E-3	4.635902825E-2	-6.796224501E-3
14.13	7.993807000E-4	2.798134347E-2	-6.317795612E-3
14.14	8.100759579E-4	6.260377308E-3	-5.816224303E-3
14.15	-1.721434397E-4	-1.538608209E-2	-6.309232405E-3
14.16	-1.590126841E-4	-3.795035398E-2	-6.801329262E-3
14.17	3.158338603E-4	-6.378647735E-2	-6.303894687E-3
14.18	-1.884192251E-4	-8.938355368E-2	-5.326718159E-3
14.19	-6.388395059E-4	-1.136674994E-1	-4.354868703E-3
14.200000000000001	-1.152705053E-3	-1.350074372E-1	-4.451770221E-3
14.21	-1.577737585E-3	-1.512559655E-1	-4.401465463E-3
14.22	-3.173704739E-3	-1.630090882E-1	-2.361135216E-3
14.23	-3.344967238E-3	-1.698890098E-1	-1.634259892E-3
14.24	-2.457071754E-3	-1.719933691E-1	-1.529207274E-3
14.25	-2.986741141E-3	-1.696111342E-1	-1.127768381E-3
14.26	-2.793714252E-3	-1.621791896E-1	-1.142070213E-3
14.27	-2.350485884E-3	-1.520607370E-1	-5.779007031E-4
14.280000000000001	-1.734669854E-3	-1.396421127E-1	-1.922194311E-4
14.290000000000001	-2.493454617E-3	-1.277696511E-1	3.925242998E-4
14.3	-2.015455356E-3	-1.188500020E-1	7.676322064E-4
14.31	-1.834831922E-3	-1.125410937E-1	1.982412513E-3
14.32	-3.396034788E-3	-1.097409876E-1	3.340441293E-3
14.33	-4.689844442E-3	-1.102934630E-1	3.079901047E-3
14.34	-4.367236016E-3	-1.132864443E-1	3.354943813E-3
14.35	-3.339632782E-3	-1.182892193E-1	3.071817720E-3
14.36	-3.610122203E-3	-1.252193689E-1	2.088052509E-3
14.370000000000001	-3.254540632E-3	-1.321288669E-1	1.107465282E-3
14.38	-2.900692082E-3	-1.368208894E-1	1.450736115E-3
14.39	-2.880542011E-3	-1.412905933E-1	1.780587798E-3
14.4	-3.521498085E-3	-1.432795406E-1	4.409064458E-4
14.41	-3.118116966E-3	-1.431084272E-1	-1.523519884E-3
14.42	-2.110718832E-3	-1.399727069E-1	-7.233988557E-4
14.43	-1.799949133E-3	-1.331837752E-1	-2.211892002E-3
14.44	-1.083105217E-3	-1.261693058E-1	-2.330798036E-3
14.450000000000001	5.965422782E-4	-1.148156321E-1	-3.454189852E-3
14.46	-2.965680821E-4	-1.039066216E-1	-3.245695055E-3
14.47	-8.067601922E-4	-8.841415226E-2	-4.420384294E-3
14.48	-7.892085951E-4	-7.184307179E-2	-4.918745258E-3
14.49	6.812179463E-4	-5.643341668E-2	-5.656469711E-3
14.5	4.159283138E-4	-3.620110706E-2	-6.643757729E-3
14.51	9.330330570E-4	-1.440489307E-2	-6.121321869E-3
14.52	3.936459063E-4	8.011288171E-3	-5.896224167E-3
14.530000000000001	1.836852578E-4	3.056234070E-2	-7.435100522E-3
14.540000000000001	1.858338483E-4	5.375564087E-2	-6.310773436E-3
14.55	9.697721149E-4	7.698328562E-2	-5.130285426E-3
14.56	3.746454451E-4	9.608040448E-2	-4.944297194E-3
14.57	1.766416141E-3	1.139106286E-1	-4.164080017E-3
14.58	2.906981333E-3	1.298004326E-1	-4.002669364E-3
14.59	3.855739303E-3	1.426509174E-1	-4.844207800E-3
14.6	3.162007320E-3	1.488053416E-1	-4.212622882E-3
14.61	3.781202858E-3	1.528162184E-1	-3.253965177E-3
14.620000000000001	3.900277191E-3	1.546695184E-1	-6.102129432E-4
14.63	3.019369153E-3	1.518039222E-1	-1.026910156E-3
14.64	2.849833411E-3	1.474420216E-1	-3.255476379E-4
14.65	2.819607368E-3	1.411750902E-1	-2.049661613E-4
14.66	3.635750248E-3	1.319215330E-1	-2.150404174E-4
14.67	3.710272578E-3	1.226541231E-1	2.397520291E-3
14.68	3.652048215E-3	1.154713213E-1	8.828082774E-5
14.69	2.732970705E-3	1.073383329E-1	2.441020995E-3
14.700000000000001	1.724610858E-3	1.015643435E-1	1.830777299E-3
14.71	2.499473600E-3	1.007755452E-1	2.653353974E-3
14.72	7.605277946E-4	1.013692802E-1	2.743037465E-3
14.73	1.512065517E-3	1.039207146E-1	2.753111589E-3
14.74	2.479167671E-3	1.104597106E-1	3.685338668E-3
14.75	2.516866300E-3	1.179146205E-1	9.650492113E-4
14.76	2.506276036E-3	1.263080810E-1	-1.133196883E-4
14.77	1.552298485E-3	1.347308180E-1	-1.080864767E-3
14.780000000000001	2.447722947E-3	1.424453104E-1	-1.455060591E-4
14.790000000000001	4.363606278E-3	1.441848261E-1	-2.023559170E-3
14.8	2.454506928E-3	1.418929172E-1	-2.036658828E-3
14.81	3.379033922E-3	1.373906086E-1	-2.989424267E-3
14.82	2.385821151E-3	1.238042081E-1	-2.956214874E-3
14.83	2.345756683E-3	1.092768183E-1	-2.948745310E-3
14.84	2.335682695E-3	9.069969617E-2	-5.831261844E-3
14.85	2.281407592E-3	6.936927901E-2	-4.878210161E-3
14.86	3.369719378E-4	4.545633789E-2	-5.826223727E-3
14.870000000000001	-5.211140349E-4	2.352724413E-2	-5.862937125E-3
14.88	1.311421777E-3	-4.000610892E-5	-6.850188047E-3
14.89	3.151428378E-4	-2.051317454E-2	-7.684318798E-3
14.9	-5.462990126E-4	-3.820323104E-2	-5.895284114E-3
14.91	3.007803215E-4	-5.764422407E-2	-6.629051035E-3
14.92	-6.757921099E-4	-7.683872291E-2	-4.033952983E-3
14.93	-1.562525900E-3	-9.461982816E-2	-5.867043758E-3
14.94	-1.455653591E-3	-1.079867333E-1	-5.790393529E-3
14.950000000000001	-6.480665835E-4	-1.235142212E-1	-4.919128085E-3
14.96	-1.522082073E-3	-1.358430618E-1	-4.642993846E-3
14.97	-1.500817530E-3	-1.451763636E-1	-2.150075027E-3
14.98	-1.700563023E-3	-1.507829502E-1	-3.059798524E-3
14.99	-3.245080676E-3	-1.549637604E-1	-3.088755320E-3
15.0	-2.220213624E-3	-1.554462151E-1	-2.846356175E-3
15.01	-1.898365664E-3	-1.531912161E-1	-1.167637350E-3
15.02	-5.049467361E-3	-1.475042111E-1	-1.031937863E-3
15.030000000000001	-4.306281951E-3	-1.411158427E-1	-2.077857002E-4
15.040000000000001	-4.745124537E-3	-1.309385757E-1	-5.579602269E-5
15.05	-3.057322096E-3	-1.232365215E-1	1.099132142E-3
15.06	-3.017026086E-3	-1.155173416E-1	2.898704092E-3
15.07	-3.158908693E-3	-1.110900423E-1	3.703775730E-3
15.08	-3.728938685E-3	-1.098680395E-1	3.516280099E-3
15.09	-2.711466544E-3	-1.089497395E-1	2.733775888E-3
15.1	-2.101883315E-3	-1.108540589E-1	2.531896159E-3
15.11	-2.638519974E-3	-1.171722118E-1	1.554599097E-3
15.120000000000001	-1.851935694E-3	-1.229122706E-1	1.014589579E-3
15.13	-2.063086305E-3	-1.299862293E-1	1.108579877E-3
15.14	-3.022492730E-3	-1.374753257E-1	-9.083839244E-4
15.15	-3.506475098E-3	-1.423423316E-1	-3.841057463E-4
15.16	-2.986697174E-3	-1.469784200E-1	-8.635878164E-4
15.17	-2.936943230E-3	-1.474274059E-1	-6.207705419E-4
15.18	-7.488143328E-4	-1.434079681E-1	-2.575348797E-3
15.19	-4.701775005E-4	-1.360241421E-1	-3.715736085E-3
15.200000000000001	-3.191715934E-4	-1.236198465E-1	-3.244490982E-3
15.21	-1.139086630E-3	-1.080931461E-1	-4.207315144E-3
15.22	-4.243308481E-5	-8.897303346E-2	-4.893252501E-3
15.23	-7.211203288E-4	-6.725461725E-2	-4.883178350E-3
15.24	-1.013712698E-3	-4.231289583E-2	-5.487798236E-3
15.25	-7.379313059E-4	-1.691277924E-2	-6.836223688E-3
15.26	9.354403375E-4	8.408557704E-3	-6.515830385E-3
15.27	2.758338584E-4	3.160959037E-2	-6.514854710E-3
15.280000000000001	9.456212794E-4	5.500337883E-2	-7.494747610E-3
15.290000000000001	1.893689956E-3	7.527792533E-2	-6.517571428E-3
15.3	1.598151148E-3	9.343439946E-2	-5.540340850E-3
15.31	2.565350527E-3	1.092494477E-1	-4.923505691E-3
15.32	2.800640916E-3	1.203857922E-1	-4.943653717E-3
15.33	2.162044990E-3	1.278716387E-1	-4.592502908E-3
15.34	2.897596949E-3	1.318077074E-1	-3.629205900E-3
15.35	3.674190629E-3	1.345217404E-1	-2.668207117E-3
15.36	2.646677574E-3	1.348032553E-1	-2.880468076E-3
15.370000000000001	2.027661276E-3	1.343268671E-1	-2.472583137E-3
15.38	3.209822304E-3	1.328768000E-1	-1.745446476E-4
15.39	3.632504600E-3	1.316827937E-1	2.244949692E-4
15.4	2.330804667E-3	1.300378806E-1	7.794675482E-4
15.41	3.698448303E-3	1.282880316E-1	3.399399056E-4
15.42	3.442353643E-3	1.251989021E-1	2.204796840E-4
15.43	3.100514979E-3	1.216068035E-1	1.651683736E-3
15.44	4.648204721E-3	1.192988323E-1	2.723775718E-3
15.450000000000001	3.679898076E-3	1.164682859E-1	2.265167295E-3
15.46	2.601572771E-3	1.129231564E-1	1.282670913E-3
15.47	2.571350880E-3	1.119021929E-1	2.193102017E-3
15.48	3.492043315E-3	1.130497021E-1	2.277600725E-3
15.49	3.475688906E-3	1.144877099E-1	7.887513472E-4
15.5	2.945518964E-3	1.172943506E-1	-1.859974982E-4
15.51	2.396181788E-3	1.226315881E-1	-6.337105865E-4
15.52	1.934949149E-3	1.280164400E-1	-6.505389239E-4
15.530000000000001	2.390560636E-3	1.330657049E-1	-1.105678087E-3
15.540000000000001	2.375137919E-3	1.378988946E-1	-2.128372898E-3
15.55	3.406815788E-3	1.392055966E-1	-2.484046021E-3
15.56	4.263850281E-3	1.355133399E-1	-2.009736633E-3
15.57	2.596937366E-3	1.260698619E-1	-3.065778801E-3
15.58	1.827713215E-3	1.123549333E-1	-3.899290581E-3
15.59	1.679696561E-3	9.472617121E-2	-4.440924126E-3
15.6	6.880756475E-4	7.254183735E-2	-4.850430581E-3
15.610000000000001	2.758338584E-4	4.795509439E-2	-5.415339809E-3
15.620000000000001	-2.945439610E-4	2.139384981E-2	-5.233963480E-3
15.63	-1.006087971E-4	-7.981858487E-3	-6.015371144E-3
15.64	-8.895430822E-4	-3.423713367E-2	-6.802314640E-3
15.65	-1.644166116E-3	-5.763944844E-2	-6.812387873E-3
15.66	-1.032842344E-3	-7.966848034E-2	-6.211138028E-3
15.67	-6.578531432E-4	-9.832330826E-2	-6.471208084E-3
15.68	5.977903265E-4	-1.121221562E-1	-4.971064328E-3
15.69	-1.207695046E-3	-1.238636900E-1	-3.935608567E-3
15.700000000000001	-1.924081069E-3	-1.323531064E-1	-5.240252374E-3
15.71	-1.560947120E-3	-1.374836699E-1	-4.002866707E-3
15.72	-2.182411028E-3	-1.398502555E-1	-3.691252904E-3
15.73	-1.155982989E-3	-1.381552914E-1	-2.059500530E-3
15.74	-1.163300390E-3	-1.353241779E-1	-2.469156898E-3
15.75	-2.783397946E-3	-1.339939540E-1	-3.110038118E-3
15.76	-3.325299435E-3	-1.309858593E-1	-1.070804828E-3
15.77	-3.268891347E-3	-1.269098977E-1	-2.003339493E-4
15.780000000000001	-2.527016666E-3	-1.234727767E-1	-2.133529969E-4
15.790000000000001	-2.205354511E-3	-1.198197494E-1	4.896595429E-4
15.8	-3.584268426E-3	-1.183218499E-1	1.477022011E-3
15.81	-2.641032179E-3	-1.164334336E-1	2.464314080E-3
15.82	-3.532610763E-3	-1.183585131E-1	1.995987438E-3
15.83	-1.811550062E-3	-1.213338702E-1	3.221353256E-3
15.84	-4.013023184E-3	-1.232280139E-1	2.229198405E-3
15.85	-3.432143460E-3	-1.264793886E-1	2.510962830E-3
15.860000000000001	-2.191810963E-3	-1.294311679E-1	1.994591154E-3
15.870000000000001	-3.461125598E-3	-1.342904373E-1	2.534263835E-4
15.88	-1.562428491E-3	-1.376083694E-1	6.029352106E-4
15.89	-9.341661118E-4	-1.388010105E-1	8.296668264E-4
15.9	-1.711967396E-3	-1.393942571E-1	-7.298456618E-4
15.91	-1.887979048E-3	-1.392746358E-1	-3.068726948E-4
15.92	-1.859662739E-3	-1.364932159E-1	-9.003320991E-4
15.93	-2.637134667E-3	-1.321559789E-1	-1.859192782E-3
15.94	-1.955825427E-3	-1.231523144E-1	-2.816345138E-3
15.950000000000001	-2.581340673E-3	-1.129153342E-1	-3.773398833E-3
15.96	-1.066503685E-3	-9.963147872E-2	-3.909293477E-3
15.97	-7.470875650E-4	-8.354246669E-2	-3.889145810E-3
15.98	-7.355528701E-4	-6.306342659E-2	-4.730322752E-3
15.99	1.084955870E-4	-4.125652376E-2	-7.411583243E-3
16.0	2.445950767E-4	-1.601635571E-2	-6.079025766E-3
16.01	-6.113150226E-4	9.602506092E-3	-6.702208880E-3
16.02	1.401766870E-4	3.596728151E-2	-6.825134251E-3
16.03	1.997856456E-3	6.054483381E-2	-6.835208402E-3
16.04	1.308080057E-3	8.561834419E-2	-5.957528562E-3
16.05	2.987576145E-3	1.060697354E-1	-4.980353116E-3
16.06	2.235166362E-3	1.221419431E-1	-4.012383118E-3
16.07	3.956564120E-3	1.332456272E-1	-5.783365668E-3
16.080000000000002	2.233948203E-3	1.381161151E-1	-4.111119341E-3
16.09	3.001701821E-3	1.386344882E-1	-3.090356074E-3
16.1	3.027321259E-3	1.352462419E-1	-3.064736470E-3
16.11	2.068018592E-3	1.327699854E-1	-4.024038949E-3
16.12	2.933134315E-3	1.254778954E-1	-2.184058426E-3
16.13	3.870362175E-3	1.179727825E-1	-1.182517483E-3
16.14	1.945307991E-3	1.141421256E-1	-2.054655519E-4
16.15	4.750020620E-3	1.086470069E-1	-1.961001834E-4
16.16	1.830793642E-3	1.067480108E-1	7.688899815E-4
16.17	3.715692242E-3	1.079818270E-1	1.743775893E-3
16.18	3.645879285E-3	1.093311891E-1	1.743775893E-3
16.19	2.635490677E-3	1.137346555E-1	1.760592591E-3
16.2	2.639557904E-3	1.193443963E-1	2.723775718E-3
16.21	3.574549340E-3	1.240522664E-1	2.661159639E-3
16.22	3.496324994E-3	1.285324231E-1	8.903269507E-4
16.23	2.624957102E-3	1.324329096E-1	3.539900360E-3
16.240000000000002	4.328309890E-3	1.358556202E-1	-1.956814775E-4
16.25	2.454599556E-3	1.375316570E-1	-1.856072285E-4
16.26	2.434448675E-3	1.400579058E-1	-1.748390024E-4
16.27	2.489424253E-3	1.405477865E-1	-1.554573372E-4
16.28	3.210245842E-3	1.382197556E-1	-1.445433115E-4
16.29	1.582337749E-3	1.349951727E-1	-1.243950778E-4
16.3	3.235994369E-3	1.312365290E-1	-2.979952426E-4
16.31	2.321583874E-3	1.222423084E-1	-1.938912359E-3
16.32	2.392678824E-3	1.099332000E-1	-1.368125647E-3
16.330000000000002	2.869498239E-3	9.832192178E-2	-4.192569159E-3
16.34	4.118624387E-4	8.153504074E-2	-5.778909678E-3
16.35	1.264473798E-3	6.194260700E-2	-5.049502755E-3
16.36	9.762100921E-4	3.985080155E-2	-5.896224167E-3
16.37	-6.926581936E-4	1.690355159E-2	-6.044003192E-3
16.38	-3.741079640E-4	-6.452916666E-3	-6.721195255E-3
16.39	1.113529071E-3	-2.851747524E-2	-5.896224167E-3
16.4	1.278817106E-4	-5.258991764E-2	-6.067639302E-3
16.41	-8.474889342E-4	-7.488240547E-2	-6.534162556E-3
16.42	-1.632286710E-3	-9.547365982E-2	-4.755799207E-3
16.43	-1.809739832E-3	-1.098222460E-1	-4.171564552E-3
16.44	-2.568083871E-3	-1.243593052E-1	-4.781594969E-3
16.45	-2.741725871E-3	-1.330782801E-1	-4.020427695E-3
16.46	-3.684443140E-3	-1.378214697E-1	-3.827239311E-3
16.47	-4.172322889E-3	-1.392771621E-1	-2.862388212E-3
16.48	-3.357891944E-3	-1.370693553E-1	-1.903035277E-3
16.490000000000002	-2.829190515E-3	-1.312754108E-1	-9.335339362E-4
16.5	-1.316747573E-3	-1.261816232E-1	4.364173065E-5
16.51	-1.533567970E-3	-1.200187760E-1	1.020818201E-3
16.52	-2.729576882E-3	-1.121917642E-1	1.486896168E-3
16.53	-3.582197080E-3	-1.048416912E-1	1.028019377E-3
16.54	-1.839901951E-3	-1.023080854E-1	2.015269613E-3
16.55	-1.940487432E-3	-1.022958980E-1	2.723775718E-3
16.56	-3.982492909E-3	-1.023868653E-1	3.012688027E-3
16.57	-3.361693199E-3	-1.073223223E-1	3.716767995E-3
16.580000000000002	-2.569022019E-3	-1.147840515E-1	3.723775696E-3
16.59	-3.292299019E-3	-1.228475522E-1	3.726916433E-3
16.6	-1.927734527E-3	-1.333630908E-1	3.421842758E-3
16.61	-2.552384182E-3	-1.425737327E-1	2.767065490E-3
16.62	-3.191504417E-3	-1.498124227E-1	2.447490623E-3
16.63	-2.884550067E-3	-1.536771970E-1	1.470314441E-3
16.64	-4.102355940E-3	-1.542528354E-1	1.489890318E-4
16.65	-2.465595433E-3	-1.539167758E-1	-1.109052928E-3
16.66	-1.816845599E-3	-1.483623313E-1	-3.751521873E-4
16.67	-1.792960321E-3	-1.391241686E-1	-2.169150424E-4
16.68	-2.132233149E-3	-1.266383506E-1	-1.661492227E-3
16.69	-2.325845722E-3	-1.126532980E-1	-1.024574334E-3
16.7	-1.322343120E-3	-9.639149855E-2	-1.386173659E-3
16.71	-1.115280357E-3	-7.826728442E-2	-1.962191777E-3
16.72	-8.894305629E-4	-6.114836359E-2	-3.163327300E-3
16.73	6.713619211E-4	-4.180095784E-2	-4.892043603E-3
16.740000000000002	8.188749504E-4	-2.238993238E-2	-4.469265234E-3
16.75	6.800428544E-4	-1.801470044E-3	-4.330433108E-3
16.76	1.235833834E-3	1.801305141E-2	-4.459167713E-3
16.77	8.016012180E-4	3.830463654E-2	-4.354933516E-3
16.78	7.073120696E-4	5.796626143E-2	-4.900775436E-3
16.79	1.231207681E-3	7.835970258E-2	-4.457486209E-3
16.8	2.137661315E-3	9.508484594E-2	-4.406238166E-3
16.81	3.614601344E-3	1.104520459E-1	-4.010044574E-3
16.82	3.616175416E-3	1.237956020E-1	-4.431262472E-3
16.830000000000002	3.090910991E-3	1.320313880E-1	-5.001189494E-3
16.84	3.065843244E-3	1.349086958E-1	-3.051679803E-3
16.85	4.004369794E-3	1.341010609E-1	-2.096367158E-3
16.86	3.417881706E-3	1.313505968E-1	-2.116515461E-3
16.87	1.970175050E-3	1.254918101E-1	-1.113625674E-3
16.88	1.945244957E-3	1.177461780E-1	-1.915188520E-4
16.89	1.919726440E-3	1.112035078E-1	8.507533452E-4
16.9	2.412041830E-3	1.050961686E-1	1.214909043E-3
16.91	2.278608835E-3	1.000974201E-1	1.304449480E-3
16.92	1.809060614E-3	9.872947307E-2	2.291699583E-3
16.93	2.328347506E-3	9.982549237E-2	2.723775718E-3
16.94	2.161931656E-3	1.030999927E-1	2.723775718E-3
16.95	1.724205917E-3	1.099224241E-1	2.159825814E-3
16.96	2.852325189E-3	1.179375936E-1	2.330854332E-3
16.97	2.471214029E-3	1.256162284E-1	2.155409774E-3
16.98	3.432460503E-3	1.339706892E-1	2.361391136E-3
16.990000000000002	4.561395624E-3	1.415260163E-1	1.556306529E-3
17.0	3.927445789E-3	1.483028546E-1	7.999595839E-4
17.01	3.533316736E-3	1.526749137E-1	8.162927596E-4
17.02	2.892589683E-3	1.542933251E-1	2.095289171E-4
17.03	3.140947138E-3	1.525839870E-1	-7.677452346E-4
17.04	2.837738064E-3	1.468991057E-1	-4.681284286E-4
17.05	2.466167546E-3	1.369162282E-1	-2.030405455E-3
17.06	1.799469925E-3	1.234547729E-1	-3.666068114E-3
17.07	1.459129908E-3	1.072958148E-1	-3.315832088E-3
17.080000000000002	1.339352542E-4	8.662519788E-2	-2.979444999E-3
17.09	8.422575191E-4	6.442596454E-2	-4.984286435E-3
17.1	1.448906409E-3	4.041797207E-2	-5.227335501E-3
17.11	1.438832445E-3	1.767767473E-2	-4.233083668E-3
17.12	1.428759530E-3	-5.400454586E-3	-5.329858003E-3
17.13	3.179271323E-5	-2.546533048E-2	-6.606819517E-3
17.14	1.764996572E-4	-4.468678917E-2	-5.477669385E-3
17.150000000000002	-9.700729151E-4	-6.121794565E-2	-4.936224308E-3
17.16	-7.642495920E-4	-7.797365492E-2	-4.943596778E-3
17.17	-4.967192464E-4	-9.149687118E-2	-4.961117735E-3
17.18	-1.953212134E-3	-1.012697784E-1	-2.762613530E-3
17.19	-9.303884030E-4	-1.102762301E-1	-4.284295709E-3
17.2	-2.685791914E-3	-1.168331557E-1	-3.500804820E-3
17.21	-3.367318811E-4	-1.226001407E-1	-3.820504047E-3
17.22	-2.479735978E-3	-1.259083074E-1	-3.295695286E-3
17.23	-1.761483946E-3	-1.276708968E-1	-3.094116752E-3
17.240000000000002	-2.865732175E-3	-1.280470264E-1	-1.550759293E-3
17.25	-2.426015610E-3	-1.265416433E-1	-1.172304660E-3
17.26	-2.978793867E-3	-1.216110328E-1	-1.184338404E-3
17.27	-3.899297357E-3	-1.182749232E-1	4.186742525E-4
17.28	-3.221285033E-3	-1.140278758E-1	1.575339126E-3
17.29	-3.002477079E-3	-1.102646696E-1	1.743775893E-3
17.3	-3.759637560E-3	-1.066850785E-1	1.743775893E-3
17.31	-1.392382722E-3	-1.070971192E-1	9.121717660E-4
17.32	-2.587635238E-3	-1.083326672E-1	7.723355752E-4
17.330000000000002	-2.838264988E-3	-1.126381722E-1	3.320722023E-3
17.34	-1.110042204E-3	-1.181240294E-1	2.025774802E-3
17.35	-1.706122995E-3	-1.264825213E-1	2.643298586E-3
17.36	-2.665603184E-3	-1.386393658E-1	1.027758012E-3
17.37	-2.765234862E-3	-1.478324762E-1	8.216383559E-4
17.38	-1.872651841E-3	-1.549298139E-1	1.715290201E-3
17.39	-3.526446873E-3	-1.589251528E-1	-1.736181250E-3
17.400000000000002	-5.470725151E-3	-1.610644302E-1	6.131100737E-4
17.41	-2.007901443E-3	-1.556488390E-1	-9.355155500E-4
17.42	-2.597213868E-3	-1.483996692E-1	-2.890924793E-3
17.43	-2.636036091E-3	-1.365829851E-1	-1.160266056E-3
17.44	-1.679650220E-3	-1.176009484E-1	-1.934036278E-3
17.45	-1.605116915E-3	-9.417741903E-2	-2.910113816E-3
17.46	-1.594567408E-3	-7.375844711E-2	-4.827953618E-3
17.47	-6.172339869E-4	-4.895354968E-2	-3.948637200E-3
17.48	3.515051407E-4	-2.413544312E-2	-4.871388812E-3
17.490000000000002	3.856559604E-4	-3.287550544E-3	-4.896224376E-3
17.5	1.345756688E-3	1.927571929E-2	-5.866042817E-3
17.51	1.355833817E-3	3.882080742E-2	-4.909124840E-3
17.52	1.350108979E-3	5.723171793E-2	-4.910587094E-3
17.53	2.315597752E-3	7.163676112E-2	-5.873203641E-3
17.54	2.295641645E-3	8.673272666E-2	-3.965430486E-3
17.55	2.311522378E-3	9.685414580E-2	-4.946491327E-3
17.56	3.212023624E-3	1.048943294E-1	-4.956906946E-3
17.57	2.255005695E-3	1.108673124E-1	-4.895485979E-3
17.580000000000002	2.330313487E-3	1.145377585E-1	-3.075177206E-3
17.59	4.053694560E-3	1.146680654E-1	-3.916902227E-3
17.6	2.297614180E-3	1.170271873E-1	-2.086861352E-3
17.61	4.082981646E-3	1.150050651E-1	-2.167528804E-3
17.62	3.889214979E-3	1.153688308E-1	-2.711366919E-3
17.63	2.053250719E-3	1.110688763E-1	1.623295626E-3
17.64	2.023028827E-3	1.112391407E-1	-1.871593746E-4
17.650000000000002	2.285408699E-3	1.098381757E-1	9.940421019E-5
17.66	4.752123587E-3	1.102863148E-1	2.520434149E-3
17.67	3.697807975E-3	1.105304008E-1	9.905703094E-4
17.68	2.553071862E-3	1.122551484E-1	2.844540543E-3
17.69	1.330907657E-3	1.153939452E-1	3.703775730E-3
17.7	4.422504682E-3	1.210185921E-1	3.703775730E-3
17.71	2.712924885E-3	1.257888634E-1	3.276173039E-3
17.72	2.546049462E-3	1.304891003E-1	1.064872760E-3
17.73	1.869663450E-3	1.362837023E-1	2.578343812E-3
17.740000000000002	2.672480542E-3	1.420461511E-1	1.763775859E-3
17.75	2.652329994E-3	1.475092126E-1	1.593838857E-3
17.76	2.632182032E-3	1.509565331E-1	7.956017023E-4
17.77	2.798223117E-3	1.524345384E-1	6.194864200E-4
17.78	3.378446724E-3	1.516906507E-1	2.918915084E-5
17.79	2.969021167E-3	1.475856453E-1	4.264927822E-4
17.8	4.279406875E-3	1.382560873E-1	-1.319920316E-3
17.81	2.830265016E-3	1.246031149E-1	-1.856642945E-3
17.82	9.739730130E-4	1.087935766E-1	-1.516633120E-3
17.830000000000002	2.461143104E-3	8.771379015E-2	-3.016223844E-3
17.84	2.443414503E-3	6.452170808E-2	-3.250898771E-3
17.85	2.433340539E-3	3.884020842E-2	-4.230568314E-3
17.86	2.169104776E-3	1.307276872E-2	-5.217818416E-3
17.87	1.166948410E-3	-1.393335676E-2	-5.687338278E-3
17.88	-8.123050440E-5	-3.670701395E-2	-4.968940943E-3
17.89	-9.527495318E-4	-5.841144606E-2	-4.705515940E-3
17.900000000000002	-1.099350508E-4	-7.568999156E-2	-4.009089048E-3
17.91	-1.491227328E-3	-9.077708801E-2	-3.731163805E-3
17.92	-8.966799274E-4	-9.997633497E-2	-3.934985528E-3
17.93	1.695077412E-4	-1.062075556E-1	-5.696811519E-3
17.94	-4.941661142E-4	-1.090465478E-1	-4.719635335E-3
17.95	-8.047453955E-4	-1.090689095E-1	-3.428595299E-3
17.96	-1.447545584E-3	-1.086768556E-1	-2.443938563E-3
17.97	-1.099127571E-3	-1.073884120E-1	-3.441262549E-3
17.98	-1.443588403E-3	-1.057501095E-1	-3.082969039E-3
17.990000000000002	-2.973882867E-3	-1.052950287E-1	-1.515910694E-3
18.0	-2.299739170E-3	-1.061037307E-1	-1.802763838E-3
18.01	-2.616566473E-3	-1.066469803E-1	-4.582876974E-4
18.02	-2.817328290E-3	-1.080205936E-1	1.138079335E-3
18.03	-2.166506716E-3	-1.105329479E-1	1.743775893E-3
18.04	-2.892075298E-3	-1.130357137E-1	1.743775893E-3
18.05	-3.256403990E-3	-1.172010828E-1	2.913483104E-3
18.06	-2.449070848E-3	-1.209719993E-1	3.889656459E-3
18.07	-3.410286825E-3	-1.250994822E-1	3.132275351E-3
18.080000000000002	-3.957361254E-3	-1.298842076E-1	3.302061664E-3
18.09	-3.091962388E-3	-1.349896870E-1	1.900122441E-3
18.1	-1.955467894E-3	-1.402140433E-1	1.214339144E-3
18.11	-2.797960197E-3	-1.449515946E-1	1.344666701E-3
18.12	-2.983431017E-3	-1.497296110E-1	1.249143145E-3
18.13	-1.885020795E-3	-1.531768976E-1	9.021105573E-4
18.14	-2.320241967E-3	-1.535357817E-1	-6.069463435E-4
18.150000000000002	-2.824724864E-3	-1.518746460E-1	-1.915444429E-4
18.16	-2.334707503E-3	-1.472664115E-1	-5.462430334E-4
18.17	-2.286491231E-3	-1.389765987E-1	-1.579291057E-3
18.18	-2.769333706E-3	-1.272009391E-1	-1.051391750E-3
18.19	-2.247337869E-3	-1.114404122E-1	-1.517961896E-3
18.2	-1.733981986E-3	-9.309807760E-2	-2.989180231E-3
18.21	-1.217891961E-3	-7.172447858E-2	-3.941057790E-3
18.22	-7.389260737E-4	-4.816615417E-2	-3.930984029E-3
18.23	8.230882853E-4	-2.380264482E-2	-4.967937008E-3
18.240000000000002	1.139476294E-3	8.700932562E-4	-5.886223998E-3
18.25	1.301228034E-3	2.325801119E-2	-4.285401007E-3
18.26	1.637617202E-3	4.478100544E-2	-3.504440672E-3
18.27	1.740151396E-3	6.486365060E-2	-4.501764814E-3
18.28	2.160148251E-3	8.195965411E-2	-4.941909483E-3
18.29	1.579885425E-3	9.468277781E-2	-4.951983313E-3
18.3	1.149999411E-3	1.047072762E-1	-4.396123228E-3
18.31	1.719008667E-3	1.100241779E-1	-4.581217146E-3
18.32	2.097884860E-3	1.120673019E-1	-4.998190166E-3
18.330000000000002	2.085833880E-3	1.117339649E-1	-5.012281086E-3
18.34	2.067440913E-3	1.097993262E-1	-4.421520884E-3
18.35	2.645303296E-3	1.066101926E-1	-3.450549776E-3
18.36	2.986994106E-3	1.027700489E-1	-4.323366704E-3
18.37	2.340386071E-3	9.882423567E-2	-2.571623278E-3
18.38	1.962976866E-3	9.543662595E-2	-1.152652794E-3
18.39	3.191297216E-3	9.612439392E-2	-5.254877347E-4
18.400000000000002	1.922670405E-3	9.867312938E-2	4.515880530E-4
18.41	9.025340934E-4	1.030464686E-1	2.080501253E-3
18.42	1.541374540E-3	1.105511884E-1	3.392765191E-3
18.43	1.842234929E-3	1.177311742E-1	3.040631875E-3
18.44	4.482292037E-3	1.254422209E-1	1.376487838E-3
18.45	3.629255834E-3	1.339005499E-1	1.444669864E-3
18.46	2.030667680E-3	1.431384505E-1	1.055631585E-3
18.47	3.112430452E-3	1.492370201E-1	7.637756952E-4
18.48	4.349798834E-3	1.539270496E-1	7.709456574E-4
18.490000000000002	4.594102304E-3	1.558717024E-1	1.483670240E-3
18.5	4.563876770E-3	1.559184441E-1	3.265794636E-4
18.51	3.091948989E-3	1.542813419E-1	5.357181112E-4
18.52	1.836567346E-3	1.513541252E-1	6.944403384E-5
18.53	2.302259145E-3	1.434749786E-1	-1.646781562E-3
18.54	2.512987859E-3	1.331955178E-1	-2.110993568E-3
18.55	9.987348296E-4	1.219483321E-1	-3.597944555E-3
18.56	1.283343655E-3	1.081551705E-1	-1.740535332E-3
18.57	7.198247812E-4	9.201309087E-2	-3.372897461E-3
18.580000000000002	4.979210431E-4	7.403953251E-2	-3.998311280E-3
18.59	4.958338339E-4	5.356234781E-2	-5.561632153E-3
18.6	4.877730890E-4	3.340649902E-2	-5.166269791E-3
18.61	4.858338509E-4	9.606089997E-3	-4.976224240E-3
18.62	4.858338509E-4	-1.417966457E-2	-4.171769498E-3
18.63	4.858338509E-4	-3.523483798E-2	-4.807928871E-3
18.64	-3.247642687E-4	-5.563682529E-2	-4.984581063E-3
18.650000000000002	-4.673021407E-4	-7.423159239E-2	-4.994655914E-3
18.66	-2.122878449E-3	-9.068971097E-2	-5.004730194E-3
18.67	-2.388425561E-3	-1.016614523E-1	-5.014804346E-3
18.68	-2.366857674E-3	-1.091045607E-1	-5.024878497E-3
18.69	-2.329247936E-3	-1.109054841E-1	-4.179459567E-3
18.7	-1.443933225E-3	-1.127213057E-1	-4.073828612E-3
18.71	-2.167530404E-3	-1.101814679E-1	-2.345108281E-3
18.72	-2.247311014E-3	-1.070741381E-1	-2.135175586E-3
18.73	-1.341600461E-3	-1.022835555E-1	-2.145249658E-3
18.740000000000002	-1.235066437E-3	-9.640516995E-2	-1.263559114E-3
18.75	-1.215818862E-3	-9.394479827E-2	-2.772098980E-4
18.76	-2.971210127E-3	-9.349382845E-2	7.007929878E-4
18.77	-2.153892192E-3	-9.477648285E-2	1.687434392E-3
18.78	-2.967496679E-3	-9.892142116E-2	2.665297786E-3
18.79	-3.895508785E-3	-1.042767209E-1	2.723775718E-3
18.8	-3.886895640E-3	-1.114719080E-1	1.788356445E-3
18.81	-2.912639246E-3	-1.199678571E-1	2.696064568E-3
18.82	-3.795006457E-3	-1.295675192E-1	2.733775888E-3
18.830000000000002	-2.847462238E-3	-1.392766791E-1	2.733775888E-3
18.84	-3.769052672E-3	-1.480150804E-1	1.779046640E-3
18.85	-3.764332905E-3	-1.557275249E-1	8.018681190E-4
18.86	-1.796026586E-3	-1.605567501E-1	8.037661830E-4
18.87	-3.731452508E-3	-1.643784160E-1	8.201648544E-4
18.88	-1.800899908E-3	-1.623731315E-1	1.790339620E-3
18.89	-3.662297552E-3	-1.602426779E-1	8.131602566E-4
18.900000000000002	-1.761819176E-3	-1.539755938E-1	-1.356481516E-4
18.91	-2.622483347E-3	-1.418527846E-1	-8.002056844E-5
18.92	-7.978808008E-4	-1.286670638E-1	7.564597648E-4
18.93	-2.632126124E-3	-1.121378328E-1	-1.984714873E-3
18.94	-2.479122807E-3	-9.489162773E-2	-1.197913248E-3
18.95	-5.603443141E-4	-7.442901528E-2	-4.030046094E-3
18.96	2.755568262E-4	-5.243005595E-2	-4.864483159E-3
18.97	-6.141661432E-4	-3.166125053E-2	-3.955416604E-3
18.98	-6.124031955E-4	-1.266159550E-2	-3.947105429E-3
18.990000000000002	-3.142182120E-4	7.729827968E-3	-4.049858588E-3
19.0	2.035238851E-3	2.553863714E-2	-4.835339671E-3
19.01	-3.701035909E-4	4.446213889E-2	-4.065462179E-3
19.02	1.355833817E-3	5.902102007E-2	-4.947401334E-3
19.03	1.354580867E-3	7.409887563E-2	-5.080266033E-3
19.04	1.344506904E-3	8.683022576E-2	-5.817511242E-3
19.05	1.470321468E-3	9.558928579E-2	-4.703046196E-3
19.06	2.435948585E-3	1.017826377E-1	-3.318252889E-3
19.07	3.089397457E-3	1.078934855E-1	-4.552403833E-3
19.080000000000002	2.863878658E-3	1.087796600E-1	-2.238509782E-3
19.09	5.931032132E-3	1.088629214E-1	-2.745288938E-3
19.1	4.895049935E-3	1.049128369E-1	-1.127996309E-3
19.11	3.690252203E-3	1.016401867E-1	-1.139916863E-3
19.12	2.254426662E-3	9.772965912E-2	-5.935611058E-4
19.13	2.993867793E-3	9.449018289E-2	1.967225961E-3
19.14	2.736934009E-3	9.279414566E-2	2.336317848E-3
19.150000000000002	2.137209470E-3	9.421513874E-2	9.837206961E-4
19.16	2.651954758E-3	9.593639509E-2	1.751559110E-3
19.17	2.083557752E-3	1.020267460E-1	2.192974637E-3
19.18	2.806370530E-3	1.090344700E-1	3.240076804E-3
19.19	3.007614045E-3	1.202451531E-1	1.982875476E-3
19.2	3.964642119E-3	1.313986015E-1	2.723775718E-3
19.21	4.921670381E-3	1.438482961E-1	2.472763603E-3
19.22	4.837960491E-3	1.545342434E-1	1.753775690E-3
19.23	3.196646134E-3	1.620975258E-1	1.756511882E-3
19.240000000000002	4.327517956E-3	1.676097452E-1	1.763775859E-3
19.25	3.889932538E-3	1.684387948E-1	1.483906533E-3
19.26	3.979905890E-3	1.652509479E-1	7.967350020E-4
19.27	3.171243717E-3	1.580628209E-1	8.068088909E-4
19.28	3.900512566E-3	1.471498258E-1	8.168835317E-4
19.29	2.217609098E-3	1.328011829E-1	2.064198328E-4
19.3	1.845122193E-3	1.152224857E-1	-1.109713019E-3
19.31	2.479172351E-3	9.556794610E-2	-1.092893359E-3
19.32	2.455619740E-3	7.445943958E-2	-1.750138654E-3
19.330000000000002	2.428876514E-3	5.491480064E-2	-3.377134041E-3
19.34	1.374906851E-3	3.332119680E-2	-3.668064418E-3
19.35	5.411839950E-4	1.250150201E-2	-3.391634279E-3
19.36	2.029415362E-3	-6.743038022E-3	-3.653507102E-3
19.37	6.695969268E-4	-2.336830342E-2	-3.036224183E-3
19.38	-9.175366406E-4	-4.102632937E-2	-3.794512742E-3
19.39	-7.450366185E-4	-5.694880792E-2	-4.237094655E-3
19.400000000000002	-3.299218088E-4	-6.810972201E-2	-3.050222862E-3
19.41	-1.486018774E-3	-7.996932243E-2	-3.459516838E-3
19.42	-1.470018486E-3	-8.954511975E-2	-4.456840989E-3
19.43	-1.046225036E-3	-9.589850909E-2	-4.626725899E-3
19.44	-5.749217147E-5	-9.978769930E-2	-4.491489095E-3
19.45	7.635331541E-5	-1.015250212E-1	-4.632373963E-3
19.46	-8.908159439E-4	-1.017346094E-1	-3.219591516E-3
19.47	-1.853482894E-3	-1.007312719E-1	-1.697868755E-3
19.48	-2.364979799E-3	-1.001245123E-1	-1.170817003E-3
19.490000000000002	-3.236245289E-3	-9.997858017E-2	-7.188498025E-4
19.5	-4.215719630E-3	-9.914061542E-2	7.282836305E-4
19.51	-3.683401074E-3	-9.761900040E-2	1.748960740E-3
19.52	-2.650374125E-3	-9.852797021E-2	2.222900606E-3
19.53	-1.637787044E-3	-1.016066593E-1	3.210227186E-3
19.54	-2.101570472E-3	-1.062012056E-1	3.209996432E-3
19.55	-3.038828438E-3	-1.128162081E-1	3.224805134E-3
19.56	-2.505513438E-3	-1.200493215E-1	3.708962247E-3
19.57	-2.523914188E-3	-1.283284184E-1	3.713775713E-3
19.580000000000002	-2.445968727E-3	-1.381913975E-1	3.713775713E-3
19.59	-2.503530180E-3	-1.479350449E-1	3.189001598E-3
19.6	-2.938682992E-3	-1.562061892E-1	2.211909128E-3
19.61	-4.012283113E-3	-1.624121048E-1	1.779333055E-3
19.62	-3.207098506E-3	-1.673309267E-1	1.783775825E-3
19.63	-1.902754119E-3	-1.688435970E-1	6.711126419E-4
19.64	-2.449040925E-3	-1.654986240E-1	4.117704696E-4
19.650000000000002	-3.416231579E-3	-1.581436075E-1	2.658554546E-4
19.66	-4.365607811E-3	-1.466062009E-1	-1.286543794E-3
19.67	-3.543473492E-3	-1.296665771E-1	-2.064217195E-3
19.68	-2.124266905E-3	-1.098975309E-1	-2.044069345E-3
19.69	7.820110252E-5	-8.842433900E-2	-2.632912558E-3
19.7	5.957441254E-4	-6.498254092E-2	-3.610088271E-3
19.71	8.431736218E-4	-3.857495433E-2	-4.593563636E-3
19.72	-3.079389152E-5	-1.521093454E-2	-3.706847648E-3
19.73	-1.366160479E-3	6.740119494E-3	-3.628218214E-3
19.740000000000002	-1.068398835E-3	2.479966962E-2	-3.336979641E-3
19.75	-8.426846956E-5	4.098443301E-2	-4.295810120E-3
19.76	8.929076571E-4	5.350977983E-2	-4.966224071E-3
19.77	5.548390707E-4	6.394616392E-2	-4.311974107E-3
19.78	8.972598770E-4	7.298199968E-2	-4.671288008E-3
19.79	1.874541192E-3	7.930318183E-2	-4.993117903E-3
19.8	1.485966032E-3	8.395513268E-2	-5.003192313E-3
19.81	1.861898610E-3	8.820243727E-2	-3.632967183E-3
19.82	2.821884494E-3	8.961664694E-2	-3.063340219E-3
19.830000000000002	2.369613223E-3	9.194649158E-2	-3.073414371E-3
19.84	2.071305201E-3	9.230570665E-2	-3.795388001E-3
19.85	2.051154912E-3	9.362799789E-2	-2.635037090E-3
19.86	3.476701052E-3	9.566891642E-2	-2.123638201E-3
19.87	2.485761475E-3	9.608390980E-2	-6.661030771E-4
19.88	1.963148417E-3	9.872560779E-2	5.572686246E-4
19.89	1.932926480E-3	1.014594993E-1	7.861399387E-4
19.900000000000002	2.650549687E-3	1.038505247E-1	7.760660748E-4
19.91	2.842482581E-3	1.077435194E-1	3.187181407E-6
19.92	2.812260650E-3	1.130361857E-1	2.093940911E-3
19.93	3.551529487E-3	1.193037452E-1	1.946348324E-3
19.94	3.713804760E-3	1.249126133E-1	9.590661584E-4
19.95	2.889630440E-3	1.343832083E-1	7.637756952E-4
19.96	2.679523399E-3	1.432372636E-1	-2.727863522E-5
19.97	3.465835228E-3	1.511334319E-1	1.406695551E-3
19.98	3.627530674E-3	1.573062684E-1	1.762078994E-3
19.990000000000002	2.787987387E-3	1.622433695E-1	1.215966862E-4
20.0	3.437293016E-3	1.644795061E-1	-1.016135742E-3
20.01	2.733165777E-3	1.612698534E-1	-3.220827993E-4
20.02	1.734368374E-3	1.562393920E-1	-1.001887502E-3
20.03	3.270039558E-3	1.459679581E-1	-2.774348437E-4
20.04	2.642222856E-3	1.302747265E-1	-1.843456552E-3
20.05	2.480537801E-3	1.141291755E-1	-3.798078234E-3
20.06	7.317948130E-4	9.398971693E-2	-3.145306470E-3
20.07	5.158338465E-4	7.105693304E-2	-4.785791431E-3
20.080000000000002	2.279827178E-3	4.624531635E-2	-4.099704480E-3
20.09	6.600539903E-4	2.321259189E-2	-5.793763548E-3
20.1	-4.059920377E-4	-3.965457731E-4	-5.966223862E-3
20.11	4.149774290E-4	-1.854073082E-2	-5.057811271E-3
20.12	4.858338509E-4	-3.791050163E-2	-4.070549786E-3
20.13	4.858338509E-4	-5.455078148E-2	-4.938566053E-3
20.14	4.858338509E-4	-6.810607611E-2	-4.996223833E-3
20.150000000000002	-4.420254089E-4	-7.770592566E-2	-6.880639606E-3
20.16	-4.745266077E-4	-8.508064750E-2	-5.086513902E-3
20.17	-4.741661482E-4	-8.762393436E-2	-5.977863123E-3
20.18	-4.545911329E-4	-8.893427155E-2	-4.097661530E-3
20.19	-4.443031176E-4	-9.021386055E-2	-4.066086779E-3
20.2	-1.408058784E-3	-8.862146031E-2	-5.049990826E-3
20.21	-2.362006500E-3	-8.690146617E-2	-3.095155716E-3
20.22	-4.040811283E-4	-8.709287355E-2	-2.126309419E-3
20.23	-4.558501953E-4	-8.731369208E-2	-2.120802836E-3
20.240000000000002	-4.227573961E-3	-8.945195008E-2	-1.120563513E-3
20.25	-2.273245191E-3	-9.506848430E-2	7.934688358E-4
20.26	-2.279355655E-3	-9.963763958E-2	7.833931730E-4
20.27	-3.161883582E-3	-1.058980581E-1	7.733193795E-4
20.28	-3.163498767E-3	-1.128644645E-1	8.677453810E-4
20.29	-3.924487077E-3	-1.194373348E-1	2.664540725E-3
20.3	-2.128615961E-3	-1.269370576E-1	1.677290800E-3
20.31	-3.011908471E-3	-1.353546607E-1	8.375225614E-4
20.32	-2.983338121E-3	-1.436495685E-1	1.744603831E-3
20.330000000000002	-2.972362224E-3	-1.486511627E-1	1.843067317E-3
20.34	-3.047854129E-3	-1.558849738E-1	2.552495981E-3
20.35	-3.809176264E-3	-1.577978277E-1	9.906054368E-4
20.36	-2.911918255E-3	-1.605146505E-1	2.644759643E-3
20.37	-2.659385718E-3	-1.612006862E-1	1.667583515E-3
20.38	-1.304329815E-3	-1.597362611E-1	9.397077857E-4
20.39	-3.577381762E-3	-1.553173019E-1	1.541033762E-3
20.400000000000002	-2.137070159E-3	-1.475893620E-1	-4.219711450E-4
20.41	-3.776689223E-3	-1.357455104E-1	-2.228282675E-3
20.42	-3.423437244E-3	-1.207002475E-1	-2.879290526E-3
20.43	-1.593120947E-3	-1.031484323E-1	-2.034581045E-3
20.44	-6.093054567E-4	-8.307804826E-2	-2.361097340E-3
20.45	-1.599375589E-4	-6.021978027E-2	-3.976223703E-3
20.46	-1.561216352E-3	-3.522877909E-2	-3.791407161E-3
20.47	-7.622253095E-4	-1.346576731E-2	-3.178364689E-3
20.48	-5.567161269E-4	1.074805310E-2	-3.976223703E-3
20.490000000000002	2.258338502E-4	2.952634447E-2	-4.180923847E-3
20.5	4.377840866E-4	4.771034497E-2	-5.170336826E-3
20.51	1.859064118E-3	6.092917456E-2	-5.509991055E-3
20.52	3.892292182E-3	7.211977547E-2	-3.998536374E-3
20.53	2.881978944E-3	7.897584840E-2	-4.242465255E-3
20.54	2.372018250E-3	8.358459777E-2	-4.757579128E-3
20.55	3.339158742E-3	8.540237809E-2	-4.028758482E-3
20.56	4.048005622E-3	8.521558013E-2	-3.783114115E-3
20.57	3.237267911E-3	8.353544924E-2	-2.806050804E-3
20.580000000000002	1.350468509E-3	8.238419471E-2	-2.369128565E-3
20.59	2.317680112E-3	8.211601593E-2	-2.531204567E-3
20.6	2.718168154E-3	8.148765306E-2	-1.129129651E-3
20.61	2.590914775E-3	8.393436206E-2	-1.431213900E-3
20.62	3.041945848E-3	8.699682115E-2	-1.231497553E-3
20.63	1.589471372E-3	9.073775483E-2	4.941376968E-4
20.64	2.899825617E-3	9.700593202E-2	1.243344172E-4
20.650000000000002	2.852729288E-3	1.049664012E-1	1.101560571E-3
20.66	2.815780241E-3	1.141549010E-1	1.422009630E-3
20.67	2.785558349E-3	1.234360542E-1	1.435105750E-3
20.68	3.101750652E-3	1.333488289E-1	2.380860653E-3
20.69	3.368522222E-3	1.428535812E-1	1.743775893E-3
20.7	3.075954913E-3	1.505124097E-1	1.743775893E-3
20.71	2.952781703E-3	1.571239178E-1	1.379110325E-3
20.72	2.448395093E-3	1.614883101E-1	7.675714138E-4
20.73	3.262643252E-3	1.641338658E-1	7.737758644E-4
20.740000000000002	2.651889257E-3	1.638440380E-1	1.164290560E-3
20.75	2.633778085E-3	1.601493714E-1	9.801539159E-4
20.76	1.809473578E-3	1.539386755E-1	-5.832646814E-4
20.77	1.454447037E-3	1.443483594E-1	-1.152056216E-3
20.78	2.161691563E-3	1.303570583E-1	-1.553400700E-3
20.79	1.991460360E-3	1.155593183E-1	-1.670391345E-3
20.8	2.517052326E-3	9.856664296E-2	-1.522126167E-3
20.81	2.059273125E-3	7.968160998E-2	-2.499387999E-3
20.82	1.941634207E-3	5.945318205E-2	-3.036224183E-3
20.830000000000002	2.013704112E-3	3.941387425E-2	-3.483740304E-3
20.84	1.026454023E-3	1.998770987E-2	-4.006224211E-3
20.85	4.872701061E-5	-1.690260979E-4	-4.010985822E-3
20.86	-4.541661356E-4	-1.891630163E-2	-4.016224381E-3
20.87	2.205451388E-5	-3.545886509E-2	-4.978484508E-3
20.88	3.236093350E-5	-5.192720434E-2	-5.004293818E-3
20.89	-4.440480753E-4	-6.579868582E-2	-4.527067661E-3
20.900000000000002	-9.320678926E-4	-7.710206023E-2	-5.021357267E-3
20.91	-1.393752144E-3	-8.531000429E-2	-5.026224341E-3
20.92	-1.891139128E-3	-8.944779037E-2	-3.996435192E-3
20.93	-1.808586712E-3	-9.064728922E-2	-4.131315328E-3
20.94	-8.065461131E-4	-8.987893450E-2	-4.519464934E-3
20.95	-8.825967701E-4	-8.712413892E-2	-4.081728485E-3
20.96	-1.303009204E-3	-8.400064982E-2	-2.992844820E-3
20.97	-1.282861224E-3	-8.237036768E-2	-1.577937006E-3
20.98	-1.262713256E-3	-8.095468967E-2	-3.957077308E-5
20.990000000000002	-1.242565275E-3	-8.139254683E-2	-3.431041396E-4
21.0	-1.786445712E-3	-8.447100006E-2	5.552432457E-4
21.01	-2.739410812E-3	-8.983897278E-2	1.757825814E-3
21.02	-3.088022532E-3	-9.848120815E-2	1.747751887E-3
21.03	-3.033676533E-3	-1.092543260E-1	1.743775893E-3
21.04	-2.995650394E-3	-1.206557265E-1	2.348620721E-3
21.05	-2.965428504E-3	-1.333007838E-1	1.499585619E-3
21.06	-2.941526450E-3	-1.449260567E-1	1.383120993E-3
21.07	-2.301177057E-3	-1.543766731E-1	2.376764997E-3
21.080000000000002	-3.199118876E-3	-1.618359662E-1	1.465885543E-3
21.09	-3.229829599E-3	-1.673517007E-1	1.421569012E-3
21.1	-2.877548724E-3	-1.703579570E-1	3.067392863E-3
21.11	-2.867474760E-3	-1.710144918E-1	2.422275617E-3
21.12	-2.850635501E-3	-1.670367841E-1	2.443541084E-3
21.13	-2.837326850E-3	-1.597450549E-1	2.100364659E-3
21.14	-2.820339501E-3	-1.496397428E-1	4.456885305E-4
21.150000000000002	-1.437461177E-3	-1.364366023E-1	-1.422474444E-4
21.16	-2.207287396E-3	-1.200349840E-1	-8.142534301E-4
21.17	-6.830879968E-4	-1.043731315E-1	-1.788492331E-3
21.18	-5.363997236E-4	-8.553387574E-2	-3.472323771E-3
21.19	-8.041661464E-4	-6.742705662E-2	-4.008939510E-3
21.2	-7.968062727E-4	-4.670726834E-2	-3.284955223E-3
21.21	-7.867318239E-4	-2.773053910E-2	-3.754783883E-3
21.22	-7.766578365E-4	-6.247634283E-3	-3.270414246E-3
21.23	7.043715307E-4	1.118187591E-2	-4.512344233E-3
21.240000000000002	1.168177631E-3	2.605792218E-2	-4.986224409E-3
21.25	1.158103595E-3	4.135552694E-2	-4.236394397E-3
21.26	1.148029610E-3	5.372990091E-2	-4.016224381E-3
21.27	1.145833801E-3	6.284744203E-2	-4.796285431E-3
21.28	1.909391202E-3	7.201774727E-2	-5.014177860E-3
21.29	2.089778468E-3	7.741881415E-2	-5.024252011E-3
21.3	1.291868824E-3	8.020693698E-2	-5.026224341E-3
21.31	2.683737050E-3	8.093671131E-2	-3.431969554E-3
21.32	3.019334493E-3	8.130397267E-2	-3.892938732E-3
21.330000000000002	2.175147576E-3	8.159347552E-2	-2.443117057E-3
21.34	1.174470707E-3	8.101731718E-2	-1.293258569E-3
21.35	1.024305409E-3	8.107664307E-2	-1.144695789E-3
21.36	1.837790688E-3	8.198907006E-2	5.204238499E-4
21.37	1.967212772E-3	8.473369488E-2	-4.971562526E-5
21.38	3.635293829E-3	8.762684294E-2	6.572007684E-4
21.39	3.841988287E-3	9.379510408E-2	7.750067540E-4
21.400000000000002	3.791611320E-3	1.004107014E-1	3.374046511E-3
21.41	2.876134508E-3	1.103014098E-1	1.956807601E-3
21.42	3.611138323E-3	1.216063518E-1	1.743775893E-3
21.43	2.799175530E-3	1.341091624E-1	2.632300796E-3
21.44	3.583327893E-3	1.449128850E-1	1.828000658E-3
21.45	3.647404748E-3	1.564983908E-1	1.743775893E-3
21.46	2.716981352E-3	1.646073404E-1	1.743775893E-3
21.47	3.544775969E-3	1.715262470E-1	1.753139683E-3
21.48	1.746536024E-3	1.736670210E-1	-9.608379608E-5
21.490000000000002	3.481169834E-3	1.718187683E-1	7.354677911E-4
21.5	4.486505908E-3	1.650468672E-1	7.933618453E-4
21.51	5.433874024E-3	1.560454092E-1	-1.529046675E-4
21.52	4.472967288E-3	1.420235592E-1	-1.120686642E-3
21.53	2.503856773E-3	1.238570882E-1	-1.136416096E-3
21.54	2.436183340E-3	1.048289177E-1	-2.085040039E-3
21.55	4.742063596E-4	8.426556414E-2	-2.086266248E-3
21.56	4.688875136E-4	6.400297305E-2	-3.066192464E-3
21.57	1.425393179E-3	4.298068307E-2	-3.076894232E-3
21.580000000000002	4.282484345E-4	2.406371814E-2	-4.981053381E-3
21.59	-5.095802315E-4	5.283912352E-3	-3.056223776E-3
21.6	4.358338427E-4	-1.217162145E-2	-3.120703467E-3
21.61	3.971497603E-4	-2.297616783E-2	-5.016627138E-3
21.62	-4.779029767E-4	-3.550156988E-2	-4.979484256E-3
21.63	2.855158818E-4	-4.606696990E-2	-4.154755571E-3
21.64	-2.341060506E-3	-5.640743378E-2	-6.077464940E-3
21.650000000000002	-4.941661142E-4	-6.384784715E-2	-6.859941388E-3
21.66	-4.933931311E-4	-7.020635313E-2	-5.046223935E-3
21.67	-5.656142176E-4	-7.561600972E-2	-5.130217246E-3
21.68	-1.443243686E-3	-8.073894505E-2	-5.946750937E-3
21.69	-1.529818509E-3	-8.291214486E-2	-4.870933909E-3
21.7	-2.183305146E-3	-8.322871821E-2	-3.212189597E-3
21.71	-7.560249653E-4	-8.356872351E-2	-3.871933401E-3
21.72	-3.082938304E-3	-8.392867439E-2	-2.137442191E-3
21.73	-1.090834941E-3	-8.512696907E-2	-1.894185455E-3
21.740000000000002	3.518374123E-4	-8.643109677E-2	-6.217449716E-5
21.75	-1.590999083E-3	-8.970445611E-2	7.823338521E-4
21.76	-3.228102758E-3	-9.536041160E-2	7.722600199E-4
21.77	-3.032006499E-3	-1.013176100E-1	6.079753215E-4
21.78	-2.170838561E-3	-1.099916246E-1	1.098768460E-4
21.79	-2.320991149E-3	-1.205127642E-1	1.573475222E-3
21.8	-3.110542145E-3	-1.318696478E-1	9.413543970E-4
21.81	-2.905436386E-3	-1.434448618E-1	1.743775893E-3
21.82	-2.094166097E-3	-1.547140858E-1	1.553531918E-3
21.830000000000002	-2.291586180E-3	-1.636117047E-1	9.732311650E-4
21.84	-3.264543903E-3	-1.694525035E-1	1.549179440E-3
21.85	-3.795809780E-3	-1.740168915E-1	9.999484691E-4
21.86	-3.452368386E-3	-1.732920015E-1	1.111954572E-3
21.87	-4.489947632E-3	-1.693729616E-1	-1.839721847E-3
21.88	-2.723492455E-3	-1.613813842E-1	-2.902109711E-3
21.89	-2.197353564E-3	-1.480389481E-1	-1.361848067E-4
21.900000000000002	-2.400890503E-3	-1.326274735E-1	-3.321475105E-3
21.91	-1.693854368E-3	-1.142445955E-1	-3.515745489E-3
21.92	-2.767259715E-3	-9.466530959E-2	-2.583325648E-3
21.93	-1.808327564E-4	-7.335070383E-2	-4.003446387E-3
21.94	-3.182074808E-4	-5.169652323E-2	-3.996224042E-3
21.95	5.081556439E-4	-2.965254480E-2	-4.282989373E-3
21.96	-8.611659854E-4	-1.015396710E-2	-4.976224240E-3
21.97	-5.559747811E-4	7.045715339E-3	-5.277489581E-3
21.98	1.126852378E-4	2.104423035E-2	-5.647659633E-3
21.990000000000002	4.217538629E-4	3.436682012E-2	-4.979447968E-3
22.0	7.626637021E-4	4.525795876E-2	-5.312692062E-3
22.01	1.058338561E-4	5.444271954E-2	-5.645803707E-3
22.02	7.777289211E-4	5.932693638E-2	-5.337339935E-3
22.03	2.052314154E-3	6.311583581E-2	-5.986224201E-3
22.04	2.038645488E-3	6.435211669E-2	-4.933140128E-3
22.05	2.018496699E-3	6.681120193E-2	-3.778929267E-3
22.06	2.728064554E-3	6.819285755E-2	-5.029966254E-3
22.07	2.809791139E-3	6.955535937E-2	-4.288073480E-3
22.080000000000002	9.819421121E-4	7.312993584E-2	-2.698730401E-3
22.09	1.745238895E-3	7.615876544E-2	-1.332852891E-3
22.1	1.732396122E-3	8.103792359E-2	-1.602629644E-4
22.11	1.170382806E-3	8.610055361E-2	6.358142603E-4
22.12	2.040995239E-3	9.073231850E-2	5.486115466E-4
22.13	1.304887835E-3	9.683593827E-2	4.998186701E-4
22.14	2.683941466E-3	1.035557174E-1	1.889654226E-3
22.150000000000002	2.888003124E-3	1.111529950E-1	7.693645807E-4
22.16	3.067618528E-3	1.188981975E-1	7.637756952E-4
22.17	4.195355227E-3	1.281163706E-1	1.657377721E-3
22.18	3.631933870E-3	1.378305481E-1	1.815648544E-3
22.19	3.149896376E-3	1.468081489E-1	1.225006680E-3
22.2	2.616271383E-3	1.556169017E-1	1.743775893E-3
22.21	3.072007110E-3	1.619546225E-1	2.224517247E-3
22.22	2.589549064E-3	1.663492034E-1	1.767352702E-3
22.23	2.556902471E-3	1.682492573E-1	1.269321248E-3
22.240000000000002	3.515674707E-3	1.671999688E-1	1.768855246E-3
22.25	2.490600051E-3	1.620594609E-1	2.586555866E-4
22.26	3.051794689E-3	1.528585402E-1	-6.434787936E-4
22.27	3.900389176E-3	1.387023304E-1	8.781580047E-4
22.28	2.361502079E-3	1.210523593E-1	-2.980106093E-4
22.29	1.969057955E-3	1.009679449E-1	-2.629448191E-3
22.3	2.389258892E-3	7.951794655E-2	-3.066223945E-3
22.31	1.278443633E-3	5.723838802E-2	-3.060624921E-3
22.32	4.101609296E-4	3.483583147E-2	-3.612169083E-3
