Time (s)	Acceleration x (m/s^2)	Acceleration y (m/s^2)	Acceleration z (m/s^2)
0.0	5.051100952E-3	3.446345869E-3	-5.747420057E-3
0.01	1.000216287E-2	2.571849380E-4	-4.456535791E-3
0.02	1.305072835E-2	-2.788890215E-3	-4.771329707E-3
0.03	1.532589724E-2	-1.574277398E-3	-5.093031631E-3
0.04	1.461209860E-2	-1.559517293E-4	-4.635335847E-3
0.05	1.222488144E-2	2.581810058E-3	-4.284235716E-3
0.06	1.022797435E-2	4.247779117E-3	-4.656024456E-3
0.07	8.564773639E-3	3.854059382E-3	-4.917272510E-3
0.08	5.811273812E-3	3.189444820E-3	-4.894014007E-3
0.09	1.091411979E-3	3.111838150E-3	-4.460347577E-3
0.1	-3.909369851E-3	3.589879791E-3	-3.957797681E-3
0.11	-8.326837867E-3	3.800955195E-3	-4.713336484E-3
0.12	-1.202053409E-2	2.596427988E-3	-3.636800789E-3
0.13	-1.425293744E-2	-4.519905417E-4	-4.926642703E-3
0.14	-1.495429847E-2	-2.351673144E-3	-3.991320848E-3
0.15	-1.545284172E-2	-3.533231375E-3	-3.311163648E-3
0.16	-1.523996257E-2	-2.115646820E-3	-3.644162967E-3
0.17	-1.500482044E-2	7.693512269E-4	-4.639587095E-3
0.18	-1.277055555E-2	3.110732269E-3	-4.803495931E-3
0.19	-1.055591727E-2	4.157449996E-3	-4.120661937E-3
0.2	-8.746694681E-3	3.563669694E-3	-3.916747344E-3
0.21	-5.081745470E-3	3.341663886E-3	-4.373018466E-3
0.22	-1.123192439E-3	3.254638687E-3	-4.810881124E-3
0.23	1.439625536E-3	2.484137184E-3	-4.941617388E-3
0.24	3.102136788E-3	1.446511716E-3	-4.397351599E-3
0.25	5.137371563E-3	7.475372337E-4	-3.525278924E-3
0.26	7.054243210E-3	-1.318840578E-5	-3.457093122E-3
0.27	8.386792820E-3	-6.057487394E-4	-4.193562787E-3
0.28	1.151238363E-2	-1.275472364E-3	-4.970816796E-3
0.29	1.134457033E-2	4.074330945E-4	-3.964845309E-3
0.3	1.138903196E-2	3.107327315E-3	-3.001791700E-3
0.31	8.848992479E-3	6.266652519E-3	-3.217956197E-3
0.32	7.953792408E-3	6.733489094E-3	-3.605436556E-3
0.33	7.430002639E-3	4.157315063E-3	-3.603146900E-3
0.34	6.620495214E-3	1.153596021E-3	-3.059975157E-3
0.35000000000000003	3.983823030E-3	1.615632738E-4	-3.658633970E-3
0.36	4.223018310E-4	1.446750225E-6	-3.844948401E-3
0.37	-3.125564994E-3	3.337317377E-4	-3.523455475E-3
0.38	-5.556888715E-3	5.440466685E-4	-3.622965164E-3
0.39	-6.393694987E-3	-3.806411875E-4	-3.661497477E-3
0.4	-7.603791057E-3	-1.094464928E-3	-3.907690657E-3
0.41000000000000003	-9.041671567E-3	6.302034870E-4	-4.728867949E-3
0.42	-9.341290223E-3	3.160681610E-3	-3.916695761E-3
0.43	-1.007106748E-2	4.680728109E-3	-3.621020045E-3
0.44	-8.155904697E-3	6.320232543E-3	-3.933518739E-3
0.45	-3.568114884E-3	4.110758630E-3	-3.455144854E-3
0.46	1.040642242E-3	1.167551305E-3	-2.640136689E-3
0.47000000000000003	5.440903453E-3	2.368998170E-4	-3.366918402E-3
0.48	1.025855807E-2	-5.280983335E-4	-3.638482092E-3
0.49	1.405285944E-2	-6.376728685E-4	-2.662547917E-3
0.5	1.693521551E-2	4.065328605E-5	-2.906934347E-3
0.51	1.955406659E-2	9.127485422E-4	-3.973175900E-3
0.52	2.149046779E-2	1.664698816E-3	-3.067233410E-3
0.53	2.188709006E-2	2.464797328E-3	-3.291265929E-3
0.54	2.075890704E-2	3.000390995E-3	-2.243735298E-3
0.55	1.707163593E-2	3.477840878E-3	-2.509678336E-3
0.56	1.337552946E-2	4.771577206E-3	-2.940599531E-3
0.5700000000000001	8.043853146E-3	4.677923116E-3	-2.943331465E-3
0.58	4.886141133E-3	2.494295088E-3	-2.542559919E-3
0.59	1.073575517E-3	5.651566594E-4	-2.969907848E-3
0.6	-1.682084014E-3	-2.015476922E-3	-3.548193917E-3
0.61	-3.842093358E-3	-2.603545981E-3	-2.486097296E-3
0.62	-6.582436987E-3	-5.540075853E-4	-2.964693285E-3
0.63	-8.413640319E-3	2.188002631E-3	-2.826286969E-3
0.64	-8.319595067E-3	2.871867605E-3	-2.234906924E-3
0.65	-7.520972214E-3	1.794526941E-3	-1.726347954E-3
0.66	-6.480564219E-3	1.284172460E-3	-1.637857850E-3
0.67	-5.880280550E-3	2.305218361E-3	-1.840714695E-3
0.68	-6.164319319E-3	3.127075123E-3	-1.681394122E-3
0.6900000000000001	-5.394062263E-3	3.227659576E-3	-1.843639879E-3
0.7000000000000001	-3.510559124E-3	2.149690652E-3	-1.677310814E-3
0.71	5.128836421E-4	4.594388753E-4	-2.138956987E-3
0.72	3.464659120E-3	-1.596057005E-3	-3.120892566E-3
0.73	5.183005175E-3	-1.132352937E-3	-1.997339006E-3
0.74	5.007048649E-3	5.723462433E-4	-1.932055219E-3
0.75	6.954412375E-3	1.905261937E-3	-2.407022900E-3
0.76	8.695426446E-3	3.938265986E-3	-2.375471268E-3
0.77	1.015074548E-2	5.010689328E-3	-1.735552139E-3
0.78	1.075693420E-2	4.602795906E-3	-1.946521881E-3
0.79	1.149354011E-2	3.076655701E-3	-1.906080322E-3
0.8	9.972131716E-3	2.035293344E-3	-1.815183477E-3
0.81	6.890488449E-3	1.109211456E-3	-1.840937595E-3
0.8200000000000001	3.711340334E-3	6.016060105E-4	-2.171904120E-3
0.8300000000000001	2.073124899E-4	4.095166464E-4	-2.221994893E-3
0.84	-3.298044728E-3	-2.070385934E-4	-1.254225790E-3
0.85	-6.505054059E-3	2.877481574E-4	-1.357447624E-3
0.86	-9.736185563E-3	-9.142150921E-4	-8.353542868E-4
0.87	-1.251103632E-2	7.139524797E-4	-6.154024227E-4
0.88	-1.751959430E-2	2.965024524E-3	-3.863187214E-4
0.89	-1.861206061E-2	4.160588470E-3	-1.450979881E-4
0.9	-1.856143105E-2	4.662320212E-3	-1.652955090E-3
0.91	-1.600094648E-2	2.435781004E-3	-2.298452712E-3
0.92	-1.377871117E-2	1.803870298E-4	-1.492975840E-3
0.93	-1.089240275E-2	-8.921544168E-5	-8.694977815E-4
0.9400000000000001	-8.148447643E-3	5.434153480E-4	-1.676130938E-3
0.9500000000000001	-4.994430164E-3	6.676443407E-4	-1.708216011E-3
0.96	-5.891354264E-4	2.803604964E-4	-1.229512321E-3
0.97	4.805159306E-3	1.519539389E-4	-1.014502808E-3
0.98	9.720371364E-3	1.383827107E-4	-1.441700182E-3
0.99	1.214412423E-2	4.833125485E-4	-1.620461060E-3
1.0	1.286645419E-2	2.294505117E-3	-1.071414758E-3
1.01	1.323531380E-2	4.170000779E-3	-1.038910970E-3
1.02	1.366098540E-2	4.691884570E-3	-3.521993844E-4
1.03	1.357287822E-2	3.939614085E-3	-8.105306459E-4
1.04	1.201381549E-2	2.156744216E-3	-1.416711450E-3
1.05	7.720723253E-3	1.204721978E-4	-1.107627830E-3
1.06	5.128674162E-3	2.103426487E-4	-1.889902815E-3
1.07	8.428605840E-4	5.038581462E-4	-9.070449261E-4
1.08	-1.262435831E-3	1.116086460E-3	-5.927364556E-5
1.09	-3.324494100E-3	1.388080811E-3	-1.727667396E-4
1.1	-5.377708551E-3	1.351373480E-3	-3.849180718E-4
1.11	-5.689331396E-3	1.240447672E-3	-7.386198385E-4
1.12	-5.797630836E-3	1.820520654E-3	-4.191943889E-4
1.1300000000000001	-7.001457470E-3	3.028025270E-3	-2.946581265E-4
1.1400000000000001	-8.109163715E-3	3.841083283E-3	-1.714838143E-4
1.1500000000000001	-7.181218662E-3	3.240345968E-3	2.250765166E-4
1.16	-4.240333842E-3	1.456325847E-3	1.164663912E-4
1.17	-1.437916719E-3	-6.313328993E-4	4.100405945E-4
1.18	9.584029393E-4	-1.040592657E-3	5.266152902E-4
1.19	1.709460784E-3	-1.172134288E-3	-3.913180529E-4
1.2	2.508619432E-3	7.172931151E-4	-3.133773235E-4
1.21	4.150881571E-3	1.132589671E-3	-5.789445280E-5
1.22	7.923848996E-3	1.923629925E-3	-2.909217071E-4
1.23	1.321097690E-2	2.082965569E-3	-1.790887058E-4
1.24	1.610944511E-2	1.685606559E-3	-5.694765776E-4
1.25	1.731158330E-2	2.236451478E-3	-7.063762220E-4
1.26	1.759270448E-2	3.436311325E-3	-1.563015217E-4
1.27	1.736289884E-2	4.350669937E-3	-9.940011734E-5
1.28	1.690481491E-2	3.016658358E-3	3.722540672E-4
1.29	1.622892055E-2	6.078365569E-4	-3.425873432E-5
1.3	1.429498221E-2	-6.148702846E-4	-5.259795438E-4
1.31	1.096363922E-2	-3.013843303E-4	9.430636828E-5
1.32	6.969262295E-3	7.816788122E-4	-1.034122957E-3
1.33	2.193114486E-3	2.115928960E-3	-7.638400687E-4
1.34	-1.779247759E-3	2.875490993E-3	1.039999298E-3
1.35	-4.421135998E-3	3.098042750E-3	2.441845435E-3
1.36	-7.975271019E-3	2.966547850E-3	-2.527879118E-5
1.37	-1.035323198E-2	2.872202978E-3	1.045644446E-4
1.3800000000000001	-1.135416101E-2	1.374807810E-3	6.896768940E-5
1.3900000000000001	-1.163088973E-2	1.425862763E-3	5.957869859E-4
1.4000000000000001	-1.091364134E-2	2.105274951E-3	-1.046531725E-4
1.41	-8.621740825E-3	1.662526190E-3	4.727165418E-4
1.42	-5.558858478E-3	2.626425218E-4	1.195628585E-3
1.43	-2.108293896E-3	-9.157295988E-4	6.727938141E-4
1.44	1.363572335E-3	-4.529058711E-4	2.999356108E-4
1.45	4.651030328E-3	1.287693520E-3	5.401423612E-4
1.46	6.473439134E-3	2.703225650E-3	8.706446009E-5
1.47	7.820854676E-3	4.068806139E-3	-1.554217880E-5
1.48	1.099108184E-2	3.894839353E-3	8.267164445E-5
1.49	1.290972112E-2	1.631311537E-3	6.572682573E-4
1.5	1.390198976E-2	2.674206058E-3	1.360942079E-3
1.51	1.156493179E-2	2.949523683E-3	1.389117896E-3
1.52	8.430458949E-3	2.053900571E-3	2.498635282E-4
1.53	4.837538255E-3	2.598798367E-3	1.285737292E-3
1.54	2.795024158E-3	1.111866976E-3	7.680506243E-4
1.55	6.667561848E-4	-6.997577151E-4	8.995982423E-4
1.56	-1.702037859E-3	-1.087139467E-3	4.288005998E-5
1.57	-4.919931388E-3	6.342549572E-4	8.933384396E-4
1.58	-8.367324232E-3	2.887323816E-3	1.101558882E-3
1.59	-1.039358223E-2	3.956167929E-3	1.146851516E-3
1.6	-1.162636093E-2	3.776049278E-3	1.653915481E-3
1.61	-1.182662312E-2	3.122127579E-3	1.722291636E-3
1.62	-1.132347861E-2	2.007635172E-3	8.588187343E-4
1.6300000000000001	-1.198004156E-2	8.967576755E-4	4.690552776E-4
1.6400000000000001	-1.195085901E-2	1.447280701E-3	1.786489853E-3
1.6500000000000001	-1.266982188E-2	1.571207586E-3	2.240556017E-3
1.6600000000000001	-1.053457579E-2	1.899093275E-4	1.638234365E-3
1.67	-8.634578971E-3	-6.203004449E-4	1.644280165E-3
1.68	-5.704443293E-3	-8.236915066E-4	4.885783701E-4
1.69	-2.466101111E-3	2.167399291E-5	1.750348162E-4
1.7	4.903782810E-4	1.831483237E-3	1.261159519E-3
1.71	3.296778305E-3	3.568992749E-3	1.660983206E-3
1.72	5.953913084E-3	4.468230649E-3	1.100522903E-3
1.73	8.796756650E-3	4.386499473E-3	1.094673214E-3
1.74	1.160371643E-2	3.276835291E-3	1.172578717E-3
1.75	1.332663217E-2	1.680954050E-3	1.642554689E-3
1.76	1.470366671E-2	7.433863024E-4	6.138699666E-4
1.77	1.388374779E-2	8.008278087E-4	1.197732339E-3
1.78	1.176796171E-2	1.759941483E-3	4.293365018E-4
1.79	8.270371968E-3	1.365530325E-3	-1.176937136E-4
1.8	6.294170720E-3	-1.279702481E-5	8.286787630E-5
1.81	2.977605003E-3	6.718039702E-4	8.319758209E-4
1.82	-3.166842375E-5	3.952851948E-4	1.531270710E-3
1.83	-5.367829273E-3	1.983130090E-3	1.254036540E-3
1.84	-9.029916727E-3	3.014915534E-3	9.820292209E-4
1.85	-1.142099918E-2	3.238386866E-3	1.778058461E-3
1.86	-1.178213686E-2	2.232255480E-3	2.269907373E-3
1.87	-1.066516845E-2	5.603673491E-4	1.754782496E-3
1.8800000000000001	-9.097511889E-3	-8.920144862E-4	1.395142936E-3
1.8900000000000001	-6.800324064E-3	-1.090901593E-3	1.378870943E-3
1.9000000000000001	-4.259075026E-3	3.628604876E-4	1.055659015E-3
1.9100000000000001	-1.748887164E-3	1.844406709E-3	1.166138741E-3
1.92	2.092186210E-3	1.584561510E-3	1.204792702E-3
1.93	7.398586784E-3	1.944135397E-3	2.325707129E-3
1.94	1.051043150E-2	9.239780344E-4	2.048270615E-3
1.95	1.233946719E-2	2.411305608E-3	1.057344795E-3
1.96	1.418553578E-2	2.832539815E-3	1.057940953E-3
1.97	1.615575563E-2	3.199206741E-3	4.833329239E-4
1.98	1.645457940E-2	2.557156468E-3	1.183706233E-3
1.99	1.589134633E-2	3.017670905E-3	2.461021970E-3
2.0	1.588022637E-2	1.455553289E-3	2.302202353E-3
2.0100000000000002	1.541452394E-2	-3.937326007E-4	9.912045307E-4
2.02	1.396433998E-2	-2.627047278E-4	1.032083040E-3
2.0300000000000002	1.096016790E-2	9.326235553E-4	1.453120942E-3
2.04	6.892711081E-3	1.516155904E-3	1.184338874E-3
2.05	4.286783182E-3	2.543941601E-3	1.531180069E-3
2.06	2.806467712E-3	3.126794742E-3	1.385675432E-3
2.07	1.447483182E-3	1.115147191E-3	1.259746811E-3
2.08	-9.802372365E-4	6.694460443E-4	2.408499377E-3
2.09	-4.180601756E-3	1.781953028E-3	1.456564884E-3
2.1	-7.929807217E-3	2.851473901E-3	1.558871787E-3
2.11	-9.647779826E-3	2.217490835E-3	1.647658326E-3
2.12	-8.981793794E-3	1.507042441E-3	1.408284441E-3
2.13	-7.326332844E-3	-1.087830487E-3	2.690416133E-3
2.14	-6.973408768E-3	1.289457585E-4	1.722968704E-3
2.15	-6.848176758E-3	8.270824570E-4	1.842264843E-3
2.16	-5.669522558E-3	2.016522855E-3	1.583904230E-3
2.17	-2.676778937E-3	2.358563478E-3	2.210811362E-3
2.18	3.080620462E-4	2.133403007E-3	1.908187225E-3
2.19	4.085051770E-3	1.378740373E-3	1.792308492E-3
2.2	7.431186105E-3	9.666267893E-4	2.276378725E-3
2.21	8.756708233E-3	2.000746421E-3	2.121981524E-3
2.22	1.007139898E-2	2.864837349E-3	1.683733295E-3
2.23	1.201529852E-2	1.873526703E-3	1.695277845E-3
2.24	1.237476422E-2	1.792679957E-3	2.270103563E-3
2.25	1.298192289E-2	1.168901822E-3	2.192757895E-3
2.2600000000000002	1.124923698E-2	3.667948058E-4	2.782741431E-3
2.27	9.466966939E-3	5.503193468E-4	1.865094439E-3
2.2800000000000002	5.015850029E-3	1.448606866E-3	1.980403583E-3
2.29	8.687691757E-4	2.602080603E-3	1.981822105E-3
2.3000000000000003	-3.936253652E-3	3.781829238E-3	1.535255832E-3
2.31	-7.689065823E-3	3.459253399E-3	2.780348058E-3
2.32	-1.069653430E-2	1.920027868E-3	3.211337222E-3
2.33	-1.363931977E-2	9.961735865E-4	2.653013025E-3
2.34	-1.541916511E-2	8.956813689E-4	1.729926754E-3
2.35	-1.625348535E-2	1.365208945E-3	1.387249792E-3
2.36	-1.647871470E-2	1.915412069E-3	1.873648809E-3
2.37	-1.575487739E-2	1.905853256E-3	2.435020748E-3
2.38	-1.266567239E-2	1.323534678E-3	2.709639345E-3
2.39	-7.419031783E-3	-2.776405186E-6	2.409959422E-3
2.4	-4.510486662E-3	2.105706145E-4	1.685269426E-3
2.41	-2.472417363E-3	2.254574171E-3	1.990126385E-3
2.42	-8.807939635E-4	3.755723638E-3	1.736452289E-3
2.43	3.730189232E-3	3.897170881E-3	2.774806710E-3
2.44	4.949587536E-3	2.636148128E-3	2.767270342E-3
2.45	8.522939754E-3	9.858493038E-4	1.837933726E-3
2.46	8.991204286E-3	8.787560345E-4	1.736379697E-3
2.47	8.949995160E-3	1.085311664E-3	2.167879742E-3
2.48	8.845325982E-3	2.322660918E-3	2.564433590E-3
2.49	9.439393352E-3	2.441544550E-3	2.605861790E-3
2.5	9.688336729E-3	2.286099355E-3	2.299360373E-3
2.5100000000000002	9.026367270E-3	1.925121861E-3	1.557082777E-3
2.52	7.920542869E-3	1.322801352E-3	1.172803841E-3
2.5300000000000002	6.145958896E-3	1.635058380E-3	1.340325282E-3
2.54	3.620718889E-3	2.460024082E-3	1.140517529E-3
2.5500000000000003	1.030119412E-3	2.088125194E-3	1.201000794E-3
2.56	-3.891098447E-4	1.985538286E-3	1.954246660E-3
2.57	-3.608975192E-3	2.560019933E-3	1.881811166E-3
2.58	-6.113611016E-3	1.676108715E-3	2.295312161E-3
2.59	-5.653853110E-3	1.407443824E-3	2.234738604E-3
2.6	-7.739911060E-3	1.108283569E-3	2.574242129E-3
2.61	-8.189009098E-3	1.307279468E-3	1.964059640E-3
2.62	-8.884413697E-3	1.032712435E-3	1.932277696E-3
2.63	-7.919673211E-3	1.824521078E-3	1.908158891E-3
2.64	-4.646329016E-3	2.161876773E-3	2.106823916E-3
2.65	-9.531574034E-4	1.861089786E-3	2.249790865E-3
2.66	2.908253916E-3	2.180147552E-3	2.311698412E-3
2.67	6.201184620E-3	2.576381507E-3	2.269898342E-3
2.68	9.037650447E-3	2.341969023E-3	1.951040576E-3
2.69	1.298777800E-2	1.653124887E-3	1.802918399E-3
2.7	1.687421059E-2	6.114072089E-4	2.337374024E-3
2.71	1.933729868E-2	-1.906304467E-4	2.309404163E-3
2.72	2.001618264E-2	-3.372897964E-4	2.481064204E-3
2.73	1.887397446E-2	4.629895916E-4	1.743882524E-3
2.74	1.776431347E-2	3.163829538E-3	1.697533861E-3
2.75	1.552665938E-2	2.736457745E-3	1.999056032E-3
2.7600000000000002	1.308325919E-2	2.933992744E-3	2.864747073E-3
2.77	1.032938009E-2	1.840537978E-3	1.470005387E-3
2.7800000000000002	6.586646160E-3	1.903568647E-3	2.106060475E-3
2.79	2.369794386E-3	2.162324642E-3	3.264743413E-3
2.8000000000000003	-1.918834482E-3	1.832943818E-3	2.624091715E-3
2.81	-5.423240336E-3	1.895947590E-3	2.575827353E-3
2.82	-7.677181818E-3	1.608933020E-3	2.313381768E-3
2.83	-8.594177593E-3	3.619428382E-4	1.395547950E-3
2.84	-8.997974575E-3	2.349095310E-4	3.105589915E-3
2.85	-8.581157547E-3	1.192552018E-3	4.433116171E-3
2.86	-7.084196127E-3	1.954138875E-3	3.512197230E-3
2.87	-5.548393285E-3	2.119219448E-3	2.698683665E-3
2.88	-4.164900271E-3	2.228635993E-3	1.656711265E-3
2.89	-2.072004288E-3	2.553730864E-3	1.423487062E-3
2.9	1.414713339E-3	1.107535497E-3	4.731059263E-3
2.91	3.736205352E-3	2.258821669E-3	1.052087084E-3
2.92	5.011870477E-3	7.976944374E-4	1.542391844E-3
2.93	5.546939174E-3	1.162485037E-3	1.544460970E-3
2.94	5.987571109E-3	2.058088635E-3	2.407108715E-3
2.95	7.976150238E-3	1.400771543E-3	2.801065612E-3
2.96	8.748059897E-3	1.810889424E-4	2.715389958E-3
2.97	8.937550795E-3	3.278608966E-4	2.295265774E-3
2.98	8.574996422E-3	1.146184873E-3	2.562814993E-3
2.99	7.313250091E-3	2.761418662E-3	2.952478642E-3
3.0	5.756451680E-3	4.143866711E-3	2.606751191E-3
3.0100000000000002	4.024368605E-3	3.182521741E-3	2.404693763E-3
3.02	2.008081597E-3	1.725792381E-3	3.046199196E-3
3.0300000000000002	4.718793975E-4	1.397642217E-3	3.009244524E-3
3.04	-3.048159842E-3	-6.091378333E-4	1.614821075E-3
3.0500000000000003	-7.446953142E-3	8.384054342E-4	1.852364042E-3
3.06	-1.011089911E-2	1.134504470E-3	2.451222674E-3
3.0700000000000003	-1.325570998E-2	2.046499881E-3	2.673730779E-3
3.08	-1.484410902E-2	1.156370701E-3	2.227552786E-3
3.09	-1.572335883E-2	1.198921820E-3	1.861644371E-3
3.1	-1.572537971E-2	1.655786724E-3	2.449801179E-3
3.11	-1.506142588E-2	2.782471004E-3	1.684214364E-3
3.12	-1.429351628E-2	2.975998446E-3	1.335525068E-3
3.13	-1.112582248E-2	2.510960705E-3	2.186649656E-3
3.14	-6.130064985E-3	2.021523409E-3	2.491734568E-3
3.15	-1.735746652E-3	1.382179932E-3	2.425379166E-3
3.16	1.924758462E-3	8.004409882E-4	2.738436398E-3
3.17	7.011835248E-3	3.827073952E-4	1.905978255E-3
3.18	8.307760502E-3	9.715947479E-4	2.743925132E-3
3.19	9.470008270E-3	1.490600827E-3	1.958774488E-3
3.2	1.109818621E-2	1.501656374E-3	2.291039473E-3
3.21	1.228542174E-2	2.461849991E-3	2.108376757E-3
3.22	1.273617681E-2	1.416805036E-3	3.382398265E-3
3.23	1.188487261E-2	1.867185103E-3	2.422610655E-3
3.24	1.018042659E-2	2.333938772E-3	2.595385346E-3
3.25	6.731204644E-3	2.862202517E-3	2.195881968E-3
3.2600000000000002	2.668302041E-3	3.430932563E-3	2.051968045E-3
3.27	8.388904851E-4	2.612440898E-3	1.540653216E-3
3.2800000000000002	1.794165746E-4	8.218827980E-4	2.146253322E-3
3.29	-1.778930599E-3	-3.313445784E-4	2.720731017E-3
3.3000000000000003	-5.201570838E-3	4.613142626E-4	2.647403519E-3
3.31	-8.018730895E-3	2.182032689E-3	3.081324564E-3
3.3200000000000003	-8.903925287E-3	2.329758563E-3	2.666595968E-3
3.33	-7.878280244E-3	1.705568988E-3	2.354700074E-3
3.34	-6.951822391E-3	2.912429564E-3	2.726357685E-3
3.35	-5.360209553E-3	1.625829617E-3	3.138822902E-3
3.36	-2.658301785E-3	1.457867590E-3	3.059700475E-3
3.37	-1.172719068E-3	2.290002146E-3	2.145508697E-3
3.38	1.709753600E-3	3.574674669E-3	8.116657889E-4
3.39	3.621636842E-3	1.425720687E-3	2.263870439E-3
3.4	7.022826299E-3	1.485080820E-3	2.683240167E-3
3.41	9.118174452E-3	5.952204486E-4	1.920775678E-3
3.42	1.097313603E-2	4.610305759E-4	2.238186749E-3
3.43	1.291647136E-2	1.336994383E-3	2.719566764E-3
3.44	1.418548033E-2	2.430048022E-3	2.499909490E-3
3.45	1.539638367E-2	3.602778812E-3	2.299361719E-3
3.46	1.604346952E-2	3.631691776E-3	2.211361151E-3
3.47	1.554654740E-2	2.341690079E-3	1.766608866E-3
3.48	1.629639268E-2	1.572549473E-3	1.495451023E-3
3.49	1.365227451E-2	4.914731018E-4	1.132450667E-3
3.5	1.126506154E-2	-7.520332874E-5	3.561617235E-3
3.5100000000000002	7.068773009E-3	1.676788030E-3	1.913052944E-3
3.52	5.094811755E-3	1.838903983E-3	1.689906898E-3
3.5300000000000002	1.420533982E-3	1.026287022E-3	2.230923907E-3
3.54	-1.326740668E-3	9.359746580E-4	1.589898210E-3
3.5500000000000003	-2.746784987E-3	3.780168189E-4	1.654034594E-3
3.56	-6.306521775E-3	2.360712656E-3	2.128429771E-3
3.5700000000000003	-9.855255855E-3	3.550798563E-3	1.545250406E-3
3.58	-1.143939712E-2	3.821079344E-3	2.318752722E-3
3.59	-1.091386627E-2	3.172501159E-3	3.469564973E-3
3.6	-9.304054230E-3	1.583871606E-3	2.975839121E-3
3.61	-6.742427463E-3	5.764099611E-4	2.235064819E-3
3.62	-4.113006309E-3	9.816766974E-4	2.590097187E-3
3.63	-2.385012109E-3	1.545650797E-3	3.233284422E-3
3.64	1.574583435E-3	1.161770159E-3	2.175095112E-3
3.65	5.062183419E-3	5.238450975E-4	2.756483717E-3
3.66	9.130579068E-3	1.758844906E-3	2.507913888E-3
3.67	1.232880845E-2	3.155683608E-4	2.208869263E-3
3.68	1.227488662E-2	1.779981050E-3	1.194756762E-3
3.69	1.207652212E-2	1.653382389E-3	1.488249048E-3
3.7	1.104739129E-2	1.747098220E-3	1.515357646E-3
3.71	1.067199667E-2	2.708572727E-3	1.648112706E-3
3.72	8.198286053E-3	2.414907591E-3	2.115249050E-3
3.73	4.938515619E-3	1.471494158E-3	2.023006980E-3
3.74	2.414991281E-3	7.825927517E-4	1.918858885E-3
3.75	-6.410262464E-4	6.021436826E-4	2.448520168E-3
3.7600000000000002	-3.871485095E-3	1.158678475E-3	2.312148597E-3
3.77	-6.322571459E-3	1.739151965E-3	1.796297100E-3
3.7800000000000002	-8.610104897E-3	1.575984728E-3	2.682550760E-3
3.79	-1.024825621E-2	2.388691011E-3	2.748984846E-3
3.8000000000000003	-1.066443850E-2	1.362432632E-3	2.881234423E-3
3.81	-1.110793719E-2	8.431355964E-4	2.779576083E-3
3.8200000000000003	-1.198423426E-2	2.056713329E-3	2.357128010E-3
3.83	-1.291747152E-2	2.691712778E-3	2.357131136E-3
3.84	-1.206148581E-2	2.052870109E-3	2.152708049E-3
3.85	-1.021062703E-2	7.650424125E-4	2.618596818E-3
3.86	-7.781892569E-3	-3.212961416E-4	2.892155764E-3
3.87	-5.378128301E-3	-3.216357746E-4	2.663261129E-3
3.88	-3.786138059E-3	8.282229887E-4	2.862023499E-3
3.89	-1.102361357E-3	1.901970578E-3	2.632157651E-3
3.9	2.103751632E-3	2.640394701E-3	2.630941791E-3
3.91	5.496681078E-3	2.460612334E-3	2.509796417E-3
3.92	7.960304481E-3	1.641010626E-3	2.818256205E-3
3.93	1.124893595E-2	2.021422201E-3	3.578160962E-3
3.94	1.220260173E-2	2.482381095E-3	1.714700991E-3
3.95	1.053613174E-2	1.895710980E-3	1.088975304E-3
3.96	1.115851023E-2	2.257742291E-3	2.676992203E-3
3.97	1.069941832E-2	1.572725697E-3	3.329089490E-3
3.98	8.845425508E-3	2.532849883E-4	2.795710690E-3
3.99	6.913890358E-3	6.912002506E-4	1.619561174E-3
4.0	4.531712915E-3	7.327815493E-4	1.615749094E-3
4.01	1.325364633E-3	7.540375351E-4	2.176265404E-3
4.0200000000000005	-2.277109443E-3	1.944869090E-3	2.626438996E-3
4.03	-4.865710459E-3	2.515844425E-3	2.605904235E-3
4.04	-6.650742111E-3	2.411117027E-3	2.104146675E-3
4.05	-8.425778179E-3	1.600620437E-3	2.683277358E-3
4.0600000000000005	-8.958770260E-3	2.475721246E-4	7.810231539E-4
4.07	-1.068864788E-2	1.241178199E-3	2.089216204E-3
4.08	-8.319297197E-3	1.809241832E-3	2.543299902E-3
4.09	-7.368616853E-3	1.863068454E-3	1.976539225E-3
4.1	-3.876267985E-3	1.020380995E-3	1.889011199E-3
4.11	1.429569476E-4	5.848101478E-4	2.147669220E-3
4.12	4.199820892E-3	-1.475539143E-4	2.050168357E-3
4.13	8.262688298E-3	-3.432752547E-4	1.867385151E-3
4.14	1.141998925E-2	1.316685484E-3	2.129509199E-3
4.15	1.336002945E-2	3.207401732E-3	2.197060522E-3
4.16	1.541801932E-2	3.216196376E-3	1.332224539E-3
4.17	1.788959005E-2	1.822276133E-3	1.665176157E-3
4.18	1.847193483E-2	1.515691310E-4	1.609698072E-3
4.19	1.714434608E-2	3.617364145E-4	1.628586093E-3
4.2	1.579723651E-2	1.066508982E-3	1.937859789E-3
4.21	1.277418567E-2	2.917915586E-3	1.616985596E-3
4.22	1.037406682E-2	2.555268543E-3	1.776555675E-3
4.23	8.377188395E-3	1.749549680E-3	1.828097233E-3
4.24	6.261838707E-3	8.785170287E-4	2.526455897E-3
4.25	3.947169788E-3	9.481382852E-4	2.103725624E-3
4.26	1.283489802E-3	1.976477773E-3	2.148384266E-3
4.2700000000000005	-8.444826323E-4	2.296285018E-3	2.584863095E-3
4.28	-2.780593506E-3	2.249181503E-3	2.662822218E-3
4.29	-4.709168994E-3	2.006423024E-3	2.480823236E-3
4.3	-5.802456130E-3	1.083800348E-3	2.056837898E-3
4.3100000000000005	-6.125003077E-3	4.625131540E-4	2.008514046E-3
4.32	-6.553907919E-3	-4.290203636E-4	1.696832277E-3
4.33	-7.253813354E-3	4.890671695E-4	2.282081159E-3
4.34	-6.542616326E-3	1.269391679E-3	2.687631741E-3
4.3500000000000005	-4.993789907E-3	8.696645147E-4	2.447575183E-3
4.36	-2.919298166E-3	1.444869804E-3	2.644893887E-3
4.37	3.898069994E-4	2.437558264E-3	2.756694030E-3
4.38	3.546765847E-3	1.541072198E-3	3.360557476E-3
4.39	5.328286350E-3	1.080054286E-3	2.239579455E-3
4.4	7.115866238E-3	2.293534830E-3	1.912179214E-3
4.41	8.597386760E-3	2.984995638E-3	1.532686845E-3
4.42	1.096874576E-2	2.764069267E-3	1.597215140E-3
4.43	1.296142394E-2	1.783316608E-3	2.246341381E-3
4.44	1.315410821E-2	1.687185962E-4	2.411633830E-3
4.45	1.195102610E-2	-1.696519544E-4	2.178386238E-3
4.46	8.928119864E-3	1.390925067E-3	2.632650808E-3
4.47	5.423192463E-3	2.870532911E-3	2.779937913E-3
4.48	1.507359869E-3	2.349918945E-3	2.560896788E-3
4.49	-1.504834093E-3	2.100331075E-3	2.616197552E-3
4.5	-3.303020748E-3	2.150696600E-3	2.708700322E-3
4.51	-8.416102552E-3	3.067584930E-3	2.838807393E-3
4.5200000000000005	-1.115572830E-2	2.253075782E-3	1.727193133E-3
4.53	-1.360223029E-2	2.286943075E-3	2.407003172E-3
4.54	-1.508725279E-2	1.280441403E-3	2.489193587E-3
4.55	-1.530436040E-2	3.447900530E-4	2.009779629E-3
4.5600000000000005	-1.469114450E-2	-1.929411321E-4	2.257727631E-3
4.57	-1.292234683E-2	5.046149163E-5	2.249197115E-3
4.58	-1.093874249E-2	6.001461664E-4	2.479107628E-3
4.59	-8.531033509E-3	1.373297621E-3	3.127843187E-3
4.6000000000000005	-5.150354896E-3	2.374286683E-3	2.745572743E-3
4.61	-1.797215956E-3	2.714532132E-3	2.321926850E-3
4.62	1.696487862E-3	2.713195845E-3	2.084356203E-3
4.63	4.065961699E-3	2.838830085E-3	2.047830046E-3
4.64	7.838917969E-3	1.812781663E-3	1.727733156E-3
4.65	9.530753811E-3	4.889033542E-4	1.914051244E-3
4.66	9.962847104E-3	3.382427764E-3	1.160880408E-3
4.67	1.017948235E-2	2.704143617E-3	1.746361986E-3
4.68	9.209428367E-3	1.029329861E-3	1.552038776E-3
4.69	9.352458312E-3	6.235913261E-4	1.999756043E-3
4.7	7.908788885E-3	1.492589860E-3	1.896374138E-3
4.71	6.398707089E-3	1.747489048E-3	2.130432608E-3
4.72	5.475010077E-3	3.026382637E-3	2.653595140E-3
4.73	2.885900506E-3	3.367681474E-3	2.673953765E-3
4.74	2.719463506E-4	3.100541789E-3	2.280737498E-3
4.75	-1.464101007E-3	2.368286966E-3	2.166772804E-3
4.76	-3.596741246E-3	1.198848035E-3	1.841552897E-3
4.7700000000000005	-6.059014659E-3	1.025110995E-3	8.540272010E-4
4.78	-6.812242796E-3	6.034164447E-4	1.480699057E-3
4.79	-7.458596835E-3	1.947406874E-3	2.095189928E-3
4.8	-6.798438854E-3	1.879823913E-3	1.523783543E-3
4.8100000000000005	-6.932838522E-3	7.010364499E-4	2.051434729E-3
4.82	-5.497751246E-3	1.273368391E-3	2.406209246E-3
4.83	-5.806587748E-3	1.501568932E-3	1.010374387E-3
4.84	-3.288697848E-3	2.499734127E-3	2.351857206E-3
4.8500000000000005	-9.136651292E-5	2.147840794E-3	2.447621750E-3
4.86	1.997556809E-3	2.670315338E-3	1.431271242E-3
4.87	5.194502185E-3	2.130302080E-3	7.986387851E-4
4.88	1.066802868E-2	9.563533690E-4	8.832928886E-4
4.89	1.439204987E-2	9.552299935E-5	1.536255645E-3
4.9	1.633206450E-2	5.821958282E-4	2.519901675E-3
4.91	1.801913857E-2	1.599096325E-3	2.723136417E-3
4.92	1.830794135E-2	1.669333418E-3	2.111622521E-3
4.93	1.800697940E-2	2.320697982E-3	2.348225044E-3
4.94	1.754914643E-2	2.593828107E-3	2.394504683E-3
4.95	1.459017379E-2	1.281085244E-3	2.340558251E-3
4.96	1.074318999E-2	1.122403183E-3	1.215456750E-3
4.97	6.291298521E-3	1.926506403E-3	-2.829615915E-4
4.98	1.295886854E-3	2.914300161E-3	3.604730703E-4
4.99	-2.701273537E-3	3.446638506E-3	5.876755395E-5
5.0	-5.689087950E-3	2.176242476E-3	3.237439326E-4
5.01	-6.834638076E-3	1.563013324E-3	-9.188588919E-4
5.0200000000000005	-9.206052308E-3	-7.761271895E-6	4.821075654E-4
5.03	-9.671384959E-3	1.024263769E-5	1.727625254E-3
5.04	-9.074079596E-3	1.538841424E-3	2.055407680E-3
5.05	-9.043202531E-3	2.368177941E-3	1.411009442E-3
5.0600000000000005	-8.610178630E-3	2.188480027E-3	6.661729356E-4
5.07	-6.109631819E-3	1.918084679E-3	5.944435253E-4
5.08	-3.143492532E-3	1.269243134E-3	1.432787637E-4
5.09	-1.199760540E-3	1.214652295E-3	6.508810971E-4
5.1000000000000005	1.184058387E-3	1.582121886E-3	1.320016040E-3
5.11	2.623839524E-3	2.291845667E-3	2.151020308E-3
5.12	4.057404204E-3	1.555281688E-3	8.840604935E-4
5.13	5.475971228E-3	9.659413959E-4	7.630412050E-4
5.14	6.224260432E-3	5.771347315E-4	1.614506400E-4
5.15	7.528147465E-3	7.529214544E-4	7.057162256E-4
5.16	7.456984839E-3	1.248533826E-3	2.146175708E-4
5.17	7.302457661E-3	2.381029028E-3	1.036774140E-3
5.18	6.773244512E-3	3.193628337E-3	1.219792226E-3
5.19	5.563354909E-3	1.888464623E-3	8.251968803E-4
5.2	2.796233479E-3	1.442127041E-4	9.947676121E-4
5.21	9.455687987E-4	4.955569471E-4	4.598395055E-4
5.22	-4.688853433E-4	1.236752643E-3	1.540887274E-4
5.23	-3.410166104E-3	1.247005059E-3	7.226390570E-4
5.24	-7.357384645E-3	1.616548097E-3	7.982150887E-4
5.25	-1.130799228E-2	1.614469231E-3	1.055920693E-3
5.26	-1.204539665E-2	9.399375697E-4	3.053040760E-4
5.2700000000000005	-1.376943044E-2	4.351243141E-4	1.310572752E-3
5.28	-1.380064159E-2	4.543295731E-4	2.222879486E-3
5.29	-1.510328879E-2	2.036393613E-4	-8.393351877E-4
5.3	-1.632170083E-2	1.382539984E-3	1.538634870E-3
5.3100000000000005	-1.549931205E-2	1.917288338E-3	2.320915651E-4
5.32	-1.269078550E-2	2.079957589E-3	3.997769307E-4
5.33	-8.753661526E-3	1.389192278E-3	1.982914620E-3
5.34	-4.972525062E-3	-1.735951862E-4	1.275742338E-3
5.3500000000000005	-3.137274445E-3	-3.026150330E-4	7.333258973E-4
5.36	-7.013575909E-4	8.956184917E-4	4.832108286E-4
5.37	3.136171991E-3	2.049228580E-3	5.404509345E-4
5.38	6.722550783E-3	2.168866367E-3	1.117759131E-3
5.39	9.199385679E-3	1.258400348E-3	1.388452051E-3
5.4	1.043299675E-2	2.966017369E-4	1.050755187E-3
5.41	1.118696178E-2	1.621006522E-3	1.174634234E-3
5.42	9.724221673E-3	1.333135155E-3	4.013563362E-4
5.43	7.784432860E-3	2.332700207E-3	9.924309122E-4
5.44	5.743003194E-3	2.674020739E-3	6.279053554E-4
5.45	3.822870832E-3	1.190036222E-3	4.037999655E-4
5.46	9.022862006E-4	-1.857990053E-4	5.132584057E-4
5.47	-2.461283086E-3	-9.626859810E-4	5.742584501E-4
5.48	-5.582561613E-3	-4.619973461E-4	2.919947814E-4
5.49	-8.249640306E-3	1.433391054E-3	-5.561391193E-6
5.5	-9.219947114E-3	1.248889572E-3	1.648444673E-4
5.51	-9.376989251E-3	1.597919613E-4	1.509852943E-4
5.5200000000000005	-8.966833028E-3	-2.726384307E-4	-2.527234528E-4
5.53	-8.573684609E-3	-1.112131017E-3	1.141827516E-3
5.54	-6.090712348E-3	-1.160337985E-3	1.388313443E-4
5.55	-4.486756915E-3	5.878660397E-4	1.085795688E-3
5.5600000000000005	-3.891720717E-3	9.918102056E-4	6.412441886E-4
5.57	-1.087194361E-3	5.741150504E-4	6.476680963E-4
5.58	1.255010907E-3	3.328135555E-4	7.010646643E-4
5.59	3.870237575E-3	3.959169873E-4	9.094579239E-4
5.6000000000000005	6.385758362E-3	3.802514824E-4	1.387125998E-3
5.61	6.968908910E-3	1.186062352E-3	6.455365484E-4
5.62	8.984106388E-3	8.715587543E-4	5.352475183E-4
5.63	1.153965723E-2	1.319608056E-3	4.651789386E-4
5.64	1.298409079E-2	2.173759109E-3	1.493208360E-4
5.65	1.396011588E-2	1.317247366E-3	4.096993607E-4
5.66	1.451083280E-2	9.151919705E-6	6.403790540E-4
5.67	1.316701212E-2	-2.451749728E-7	5.224781176E-4
5.68	1.207848490E-2	6.352626851E-5	7.042519299E-4
5.69	1.001885689E-2	8.578484497E-4	5.887255837E-4
5.7	6.827030471E-3	7.402560405E-4	1.459094428E-3
5.71	4.841342834E-3	-7.858876936E-4	9.938449574E-4
5.72	1.258818061E-3	-1.500986616E-3	1.332302287E-3
5.73	-2.673282853E-3	-6.214182578E-4	-4.956971092E-5
5.74	-5.040567077E-3	-1.912024367E-4	7.072372069E-4
5.75	-7.330832716E-3	8.177595397E-4	8.485418693E-4
5.76	-9.312397846E-3	1.861378731E-3	6.741904116E-4
5.7700000000000005	-1.092552460E-2	2.028515662E-3	1.094733841E-3
5.78	-1.125228556E-2	6.908115713E-4	7.976759610E-4
5.79	-1.037163750E-2	-8.886268676E-4	5.411995032E-4
5.8	-8.919563258E-3	-1.219257361E-3	1.154385431E-3
5.8100000000000005	-7.475543078E-3	-4.591252920E-4	1.052960275E-3
5.82	-5.407847858E-3	2.108484679E-4	1.083234680E-4
5.83	-2.568254012E-3	-3.844248283E-4	8.229249207E-4
5.84	1.103522353E-3	-2.276429897E-5	7.436913808E-4
5.8500000000000005	4.513769114E-3	2.601508163E-4	8.333739389E-4
5.86	8.387055538E-3	1.114259621E-3	4.210098740E-4
5.87	9.124656914E-3	1.622388717E-3	7.136274899E-4
5.88	9.056820106E-3	2.368111428E-3	5.600848928E-4
5.89	1.026950104E-2	2.201721178E-3	-2.598414685E-4
5.9	1.019868430E-2	6.361889751E-4	6.154926141E-4
5.91	8.296869270E-3	-1.529102925E-3	1.038125892E-3
5.92	5.870074575E-3	-1.639121491E-3	5.002756302E-4
5.93	3.107673637E-3	-2.095868076E-4	4.039778349E-4
5.94	-7.783637501E-4	8.705881081E-4	6.499134672E-4
5.95	-4.673016427E-3	1.235802822E-3	1.012960068E-3
5.96	-7.230161194E-3	8.436047094E-4	1.604700050E-3
5.97	-9.733333279E-3	-1.288194044E-4	1.120702984E-3
5.98	-1.123666920E-2	-3.468224467E-4	5.024033253E-4
5.99	-1.363645201E-2	-2.246349966E-4	1.249220692E-3
6.0	-1.372487749E-2	-6.196831016E-4	6.477731732E-4
6.01	-1.422575900E-2	-3.627652941E-4	1.023852607E-3
6.0200000000000005	-1.334343551E-2	-2.314300705E-5	1.516589767E-3
6.03	-1.205403362E-2	-8.613019257E-4	6.718571341E-4
6.04	-1.016714685E-2	-7.911489634E-4	6.057711830E-4
6.05	-8.428259318E-3	-1.099209135E-3	5.425561339E-4
6.0600000000000005	-7.313857473E-3	-3.816090576E-4	4.120385776E-4
6.07	-5.564469354E-3	5.685868237E-4	6.727141782E-4
6.08	-3.945972809E-3	8.946494829E-4	8.569470068E-4
6.09	-1.235659169E-3	1.191838787E-3	9.006439983E-4
6.1000000000000005	1.546653078E-3	4.239328832E-4	2.530812428E-4
6.11	3.405218203E-3	-1.981651110E-4	4.070417652E-4
6.12	4.947426159E-3	2.582608345E-4	1.061793657E-3
6.13	6.716323380E-3	2.369898471E-4	-9.500639992E-5
6.140000000000001	7.989983934E-3	5.183350513E-4	-4.173112881E-4
6.15	8.049514933E-3	8.598295541E-4	-7.211429327E-5
6.16	8.832393760E-3	-6.084739317E-4	1.729361786E-3
6.17	7.694350420E-3	-1.075143550E-3	5.916517650E-4
6.18	6.224260432E-3	-1.640853938E-3	6.919796622E-4
6.19	2.796416197E-3	-8.264285277E-4	7.137406498E-4
6.2	-1.212423943E-7	-8.417253314E-5	1.094411202E-3
6.21	-2.406181617E-3	1.165982958E-3	-2.230488660E-4
6.22	-5.445696133E-3	1.230548369E-3	5.251230031E-4
6.23	-6.735807868E-3	-2.227397897E-5	6.314324055E-4
6.24	-8.395971018E-3	-6.764882951E-4	5.235700383E-4
6.25	-1.014187425E-2	-7.012896250E-4	8.143631891E-4
6.26	-1.107684539E-2	-1.277039166E-4	7.525515003E-4
6.2700000000000005	-1.080511137E-2	5.510640715E-4	1.005291169E-3
6.28	-8.998952405E-3	-2.575540339E-4	1.484491996E-3
6.29	-6.668785575E-3	-1.917735704E-3	3.761259330E-4
6.3	-2.810180244E-3	-6.003571160E-4	2.014090804E-4
6.3100000000000005	-2.367031149E-4	4.927087890E-4	3.992182114E-4
6.32	4.167053755E-3	8.016058378E-4	7.747753991E-5
6.33	5.942702246E-3	5.991616279E-4	-5.016969084E-5
6.34	9.171374601E-3	3.604776963E-4	-3.026292661E-4
6.3500000000000005	1.164826426E-2	4.588332270E-4	-1.469530582E-4
6.36	1.368619978E-2	-6.555985506E-4	3.550960446E-4
6.37	1.545269006E-2	-9.583336645E-4	6.477267576E-4
6.38	1.476478046E-2	-2.838097047E-4	4.068025727E-4
6.390000000000001	1.317300574E-2	2.989443631E-4	4.234987436E-4
6.4	1.227393295E-2	5.579984449E-4	5.326006465E-4
6.41	1.128836066E-2	6.820720174E-4	8.082786032E-4
6.42	9.042520919E-3	-2.618859986E-4	7.680107278E-4
6.43	6.002267108E-3	-1.573801899E-3	2.178998687E-4
6.44	2.930231494E-3	-9.578814455E-4	3.936997326E-4
6.45	3.024645212E-4	-4.190042814E-5	4.760683619E-4
6.46	-3.642909101E-3	-3.267162431E-4	-1.674050824E-4
6.47	-5.584319062E-3	1.513208917E-4	1.149392189E-4
6.48	-6.455609551E-3	3.125699753E-4	2.969953707E-4
6.49	-6.338244314E-3	-1.322282668E-3	3.056214454E-5
6.5	-8.094276671E-3	-1.814988991E-3	-9.664915560E-5
6.51	-7.379668182E-3	-1.152263679E-3	-5.500091008E-4
6.5200000000000005	-6.548128707E-3	-8.778954817E-4	4.596736084E-4
6.53	-6.403995771E-3	-8.224829496E-4	1.083418363E-3
6.54	-5.733933998E-3	-9.524014493E-4	5.366795358E-4
6.55	-3.245404047E-3	-1.255021967E-3	2.467123589E-4
6.5600000000000005	-1.162350321E-3	-1.217694873E-3	5.005044637E-4
6.57	3.612260662E-4	-5.196177640E-4	1.172387285E-3
6.58	1.573500656E-3	5.252778603E-4	1.126709177E-3
6.59	2.661607268E-3	1.200464726E-3	2.754103029E-4
6.6000000000000005	4.769499870E-3	9.360114847E-4	2.337100170E-4
6.61	7.342515974E-3	5.711606475E-6	-1.707128159E-5
6.62	8.695665714E-3	-2.065884964E-4	4.207615820E-4
6.63	8.552170643E-3	-5.441463291E-4	-1.051283406E-4
6.640000000000001	7.755382201E-3	-6.144782919E-4	-5.600761818E-4
6.65	7.272920710E-3	-2.474284738E-4	-5.118434274E-4
6.66	5.608590345E-3	-2.288825768E-4	-3.359889523E-4
6.67	2.895465113E-3	6.011148321E-5	6.258901239E-4
6.68	3.842808016E-4	-7.771514828E-4	2.110138035E-4
6.69	-3.808662351E-3	-2.250048893E-4	2.497079332E-5
6.7	-7.366171887E-3	-1.802612026E-4	1.974694847E-4
6.71	-1.010467487E-2	3.478929458E-4	6.010415290E-4
6.72	-1.333971697E-2	3.645181044E-4	5.640255244E-4
6.73	-1.580170589E-2	-3.168780178E-4	3.296462150E-4
6.74	-1.601369346E-2	-1.159130733E-3	8.834509369E-5
6.75	-1.565758896E-2	-1.694125780E-3	-2.071471121E-4
6.76	-1.503965129E-2	-3.014666176E-4	9.497250440E-4
6.7700000000000005	-1.415135418E-2	-8.775829345E-4	-1.268451059E-4
6.78	-1.114604342E-2	5.835455521E-4	-9.063032583E-5
6.79	-7.418245776E-3	4.804113867E-4	9.667215622E-4
6.8	-4.306663115E-3	-2.182256418E-4	4.674128298E-4
6.8100000000000005	-1.482520774E-3	-9.798067376E-4	7.790311173E-4
6.82	1.170688199E-3	-6.928788663E-4	7.358013124E-4
6.83	3.419737373E-3	1.199589232E-5	4.727550492E-4
6.84	5.026312342E-3	9.004774373E-4	8.222643088E-4
6.8500000000000005	6.611695603E-3	8.842494500E-4	6.523947027E-4
6.86	8.085222291E-3	-3.616678848E-4	6.410707660E-5
6.87	8.448585679E-3	-1.299167313E-4	-3.867769888E-4
6.88	7.240529057E-3	-1.137989901E-3	-1.887051596E-4
6.890000000000001	6.532555117E-3	-1.156947342E-3	1.022588312E-4
6.9	4.664198262E-3	3.396295935E-4	1.202519095E-4
6.91	3.070826984E-3	1.004877939E-3	-1.143813217E-4
6.92	1.556638604E-3	3.945379360E-4	-9.465298388E-5
6.93	-5.312903227E-4	-1.533838354E-4	-1.024684290E-4
6.94	-3.044412834E-3	-5.473483861E-4	1.228216019E-4
6.95	-4.143920839E-3	-1.296452375E-3	1.965583161E-5
6.96	-5.164013070E-3	-6.779296979E-4	1.693426424E-4
6.97	-6.619970106E-3	-3.357520540E-4	4.325841562E-4
6.98	-7.951138232E-3	-1.022154063E-3	4.765693978E-4
6.99	-8.330637289E-3	-1.167715801E-3	5.285417495E-4
7.0	-7.438282899E-3	-9.442425409E-4	7.208413808E-4
7.01	-6.401445402E-3	-1.442790969E-3	3.560917757E-4
7.0200000000000005	-5.919288858E-3	-3.495731818E-4	1.040296965E-4
7.03	-3.466688454E-3	-3.455023603E-4	6.815731247E-4
7.04	-1.315786654E-3	2.957445927E-4	6.347443977E-5
7.05	-1.342861930E-4	-8.434130962E-4	4.855155630E-4
7.0600000000000005	3.931775850E-3	-1.094473477E-3	-9.334396011E-4
7.07	7.594701600E-3	-8.210792213E-4	-3.289286935E-4
7.08	1.019602541E-2	-8.541397623E-4	3.177982210E-4
7.09	1.148032498E-2	-6.543918057E-4	-2.486596887E-4
7.1000000000000005	1.234013322E-2	-5.817525506E-4	-7.760062546E-4
7.11	1.427505713E-2	-5.623941859E-5	2.327173734E-4
7.12	1.538316084E-2	-4.492440575E-4	-3.101428469E-5
7.13	1.499090266E-2	-1.092084409E-3	-1.085380307E-3
7.140000000000001	1.330538278E-2	-6.713599723E-4	-1.397667811E-3
7.15	1.094322462E-2	7.088197684E-4	-7.902041974E-4
7.16	7.706581759E-3	1.291891489E-3	4.827743200E-5
7.17	3.690315633E-3	9.997958625E-5	2.764968644E-5
7.18	1.234959664E-3	2.947377580E-4	6.243191276E-4
7.19	-1.621346366E-3	-4.177760140E-4	8.419438766E-5
7.2	-5.523240257E-3	-7.148230124E-4	-4.997226432E-4
7.21	-9.206627546E-3	4.160766072E-4	4.957467971E-4
7.22	-9.914921117E-3	9.199563285E-5	5.880957703E-5
7.23	-1.090158244E-2	-8.485642191E-5	-2.234176422E-5
7.24	-1.106561554E-2	-3.862049638E-4	2.125782135E-4
7.25	-9.618218027E-3	-8.125155852E-4	3.659745566E-4
7.26	-7.635600086E-3	-1.091031917E-3	6.140299233E-4
7.2700000000000005	-5.784038503E-3	-9.972685777E-4	7.248046979E-4
7.28	-2.480187081E-3	6.108949675E-4	1.725072141E-4
7.29	-2.063441851E-5	3.906867181E-4	4.429579311E-4
7.3	2.334842156E-3	-1.935698737E-4	-7.974429469E-5
7.3100000000000005	4.464207309E-3	-4.250588570E-4	3.304710298E-4
7.32	6.371743185E-3	-1.289384720E-3	4.262282015E-5
7.33	6.471732187E-3	-1.528874776E-3	3.692785302E-4
7.34	7.465287170E-3	-3.998656596E-4	-1.716055791E-4
7.3500000000000005	6.251232966E-3	7.994367333E-4	-2.608995760E-4
7.36	5.583702968E-3	1.868386393E-3	-2.955377423E-4
7.37	5.159959354E-3	4.460561673E-4	-1.766219673E-4
7.38	5.069904565E-3	1.246836795E-4	6.319730378E-5
7.390000000000001	3.735863607E-3	-4.765571069E-4	8.620886443E-5
7.4	1.375075107E-3	-6.720495849E-4	3.362532888E-4
7.41	-9.644796612E-4	2.644965567E-4	5.063531495E-4
7.42	-3.125888969E-3	1.550950534E-4	-4.197862364E-4
7.43	-5.344393764E-3	1.138165553E-5	-8.989572393E-4
7.44	-7.936204258E-3	-1.225063904E-3	9.184901886E-4
7.45	-9.698745470E-3	-1.829979615E-3	-2.850508312E-4
7.46	-1.144579485E-2	-2.004091687E-4	2.616606229E-4
7.47	-1.446260070E-2	1.950197846E-4	3.912861502E-4
7.48	-1.547700348E-2	-1.484899006E-4	2.710787761E-4
7.49	-1.485516610E-2	5.292272373E-4	1.777899613E-4
7.5	-1.384990138E-2	-3.139084194E-5	2.429960335E-3
7.51	-1.134174878E-2	-1.523056979E-3	-3.237082994E-5
7.5200000000000005	-9.420568986E-3	-1.179068441E-3	-1.257184890E-3
7.53	-7.524920029E-3	-7.184678512E-4	-6.533581398E-4
7.54	-4.816958962E-3	-4.911716945E-4	7.306532347E-4
7.55	-1.350538099E-3	5.780693298E-5	1.505465707E-3
7.5600000000000005	1.983028204E-3	5.333158630E-4	5.640895696E-4
7.57	4.206686742E-3	2.401666852E-4	-4.841732716E-4
7.58	6.365965429E-3	-4.253341734E-4	-4.684598912E-4
7.59	8.801675777E-3	-1.183280971E-3	-5.257600862E-4
7.6000000000000005	9.814561106E-3	-2.631778171E-4	1.174844136E-3
7.61	9.169425475E-3	9.941033036E-4	1.844154018E-4
7.62	8.268519115E-3	1.476114211E-3	-4.126672149E-4
7.63	7.824537816E-3	8.218595805E-4	7.811254978E-4
7.640000000000001	5.418851179E-3	-6.879619330E-4	1.096051470E-3
7.65	3.777904717E-3	-5.460425034E-4	3.784206735E-4
7.66	-5.176719636E-4	-3.741672937E-4	-1.177115014E-3
7.67	-3.586298747E-3	-9.473721309E-4	1.412259994E-4
7.68	-5.967526858E-3	-2.495740188E-4	9.109011037E-5
7.69	-7.400934520E-3	-2.735000993E-4	-2.321670329E-4
7.7	-8.938087691E-3	-8.685927160E-4	2.089671097E-4
7.71	-1.007938464E-2	-6.571467055E-4	8.848395192E-4
7.72	-1.005955458E-2	-2.809223014E-4	1.020063851E-3
7.73	-9.809541551E-3	1.743033053E-4	3.443918887E-4
7.74	-7.748196264E-3	5.016223799E-4	7.153106415E-5
7.75	-5.509768175E-3	2.620254991E-4	-2.831388900E-4
7.76	-2.057683562E-3	-1.193525786E-3	-1.372040453E-4
7.7700000000000005	5.117540223E-5	1.454249029E-5	6.377107166E-4
7.78	2.774853315E-3	-1.999590334E-3	1.243332580E-4
7.79	5.347982002E-3	-9.589849978E-4	-6.343905771E-4
7.8	7.981560855E-3	-7.041754266E-4	2.815783718E-4
7.8100000000000005	9.228109028E-3	6.385307594E-4	3.777370262E-5
7.82	1.153439007E-2	2.412847229E-4	-5.000468806E-4
7.83	1.272756387E-2	-3.361588310E-4	1.486641516E-4
7.84	1.325565920E-2	-1.039168735E-3	5.745029105E-4
7.8500000000000005	1.207029124E-2	-1.158407489E-3	5.412348684E-4
7.86	1.092929079E-2	2.762032699E-4	2.530007277E-4
7.87	1.018109739E-2	1.256936124E-3	-9.265647514E-5
7.88	8.692302023E-3	5.019776776E-4	2.807262334E-4
7.890000000000001	7.165618654E-3	-3.793804812E-4	9.932702725E-4
7.9	6.007002959E-3	-1.209718813E-3	5.206786560E-4
7.91	3.779039839E-3	-1.887722686E-3	7.014599112E-4
7.92	7.280276329E-4	-1.022751572E-3	-7.570401109E-4
7.930000000000001	-2.913871248E-3	1.025612195E-4	2.063711287E-4
7.94	-4.368815773E-3	-4.338329914E-4	-9.450064187E-4
7.95	-6.496911047E-3	-2.118347566E-4	-7.618594500E-4
7.96	-7.870571681E-3	-6.695409475E-4	2.135949564E-4
7.97	-8.417134516E-3	-1.522674006E-3	5.501797898E-4
7.98	-9.396496442E-3	-7.983067164E-4	3.488974598E-4
7.99	-9.690992719E-3	5.529747044E-4	2.272245333E-4
8.0	-7.453040666E-3	3.161597085E-4	6.806385818E-4
8.01	-5.488968423E-3	-3.605382561E-4	-6.448702894E-5
8.02	-2.662948216E-3	-4.614196266E-4	-3.829550306E-4
8.03	-1.252560896E-4	-1.140949133E-3	-8.713975419E-4
8.040000000000001	2.214451087E-3	-1.395688114E-3	-2.637927377E-4
8.05	4.498874243E-3	-1.079279746E-4	-6.871282596E-4
8.06	7.000150882E-3	-3.949855706E-4	-2.908810389E-4
8.07	8.698680416E-3	-5.709570297E-4	1.726754637E-4
8.08	9.367715618E-3	-5.632432528E-4	3.974299838E-4
8.09	9.123560994E-3	4.834841025E-7	3.548353236E-4
8.1	8.252129575E-3	-1.105173600E-4	3.062277039E-4
8.11	6.589529173E-3	-5.783429328E-6	5.309669448E-4
8.120000000000001	4.260347881E-3	8.756792222E-4	5.615982660E-4
8.13	1.194021836E-3	1.207559632E-3	1.420950598E-4
8.14	-2.348327268E-3	1.596432329E-4	-8.153013785E-5
8.15	-5.556440306E-3	-9.473207531E-4	2.151734228E-4
8.16	-7.700664047E-3	-8.282692664E-4	3.897115350E-4
8.17	-1.067568102E-2	-6.714187096E-4	6.205403925E-5
8.18	-1.286139317E-2	-3.102268128E-4	-9.898736070E-5
8.19	-1.340739872E-2	1.106159542E-4	1.414915717E-4
8.2	-1.444666160E-2	-7.093463735E-4	1.187969113E-3
8.21	-1.295194420E-2	-1.033592226E-3	8.856655374E-4
8.22	-1.230565298E-2	-1.637751903E-3	-4.283212424E-4
8.23	-1.152031354E-2	-1.134997601E-3	-6.683628000E-4
8.24	-1.025932578E-2	-8.414098610E-4	-7.724940384E-4
8.25	-8.673919103E-3	-6.007205850E-4	-2.399019971E-4
8.26	-6.130426810E-3	-3.320272150E-4	-1.549691642E-5
8.27	-3.759083545E-3	-9.535407193E-5	-9.495004146E-5
8.28	-1.643429098E-3	-3.928601559E-4	1.330140800E-6
8.290000000000001	1.311189320E-3	-9.943838061E-4	5.781693124E-5
8.3	2.788792273E-3	-3.175745162E-4	4.780406033E-4
8.31	3.271863099E-3	-6.622323026E-4	3.891005551E-4
8.32	5.269137306E-3	2.627405336E-4	-1.019163058E-3
8.33	7.648050888E-3	-4.005419255E-4	-1.033421910E-3
8.34	7.780491513E-3	-3.220048508E-6	7.733280814E-4
8.35	6.804793396E-3	-8.555446330E-4	-8.224509070E-4
8.36	5.944867319E-3	-5.074772082E-4	4.667141509E-4
8.370000000000001	4.031090693E-3	-1.715144740E-4	5.170711480E-4
8.38	2.732140842E-3	3.884870866E-4	2.764124378E-4
8.39	1.025358646E-3	9.158181988E-4	-6.111801838E-4
8.4	-1.117873916E-3	4.351230756E-4	-8.344388755E-5
8.41	-3.229192872E-3	-6.553757941E-4	-1.287973565E-4
8.42	-4.914419439E-3	-8.683696723E-4	-6.128164758E-5
8.43	-6.602595663E-3	-4.559630453E-4	6.477544237E-4
8.44	-8.731943907E-3	-4.803066894E-4	4.360868067E-4
8.45	-9.854527217E-3	-2.816417772E-4	3.254758154E-4
8.46	-9.492916897E-3	-5.228112340E-4	-1.106138951E-4
8.47	-8.238410426E-3	-2.634740217E-4	1.147586132E-3
8.48	-7.485783345E-3	-3.753562070E-4	-5.093292618E-4
8.49	-4.841981144E-3	3.700301527E-5	-1.488713440E-4
8.5	-2.457913650E-3	-1.711448336E-4	3.744590463E-4
8.51	-1.950733838E-4	1.586530450E-3	-5.251948678E-4
8.52	3.809319710E-3	7.108213356E-4	-3.454860480E-4
8.53	7.793763928E-3	7.617918170E-5	3.615176965E-4
8.540000000000001	1.076239207E-2	-4.395676751E-4	-7.785200400E-5
8.55	1.295580020E-2	-3.356249165E-4	1.439358698E-4
8.56	1.384601805E-2	-1.004854415E-4	5.611078520E-4
8.57	1.410269614E-2	4.578144656E-4	4.550176791E-4
8.58	1.411150116E-2	5.945406879E-4	1.634257028E-4
8.59	1.333286004E-2	-5.827935834E-4	-4.470454484E-4
8.6	1.147791141E-2	-7.490606602E-4	-1.231485153E-3
8.61	9.083691127E-3	7.345705010E-6	-9.257084903E-4
8.620000000000001	7.063647403E-3	6.051244175E-4	-8.132456736E-5
8.63	3.406333676E-3	4.046925488E-4	9.404936362E-5
8.64	-3.197350263E-4	5.423646907E-4	-4.532279100E-4
8.65	-1.423482631E-3	-3.305010159E-4	7.786782320E-4
8.66	-2.873706120E-3	-8.536404937E-4	4.548384310E-5
8.67	-5.579856311E-3	-8.649293824E-4	1.157453343E-4
8.68	-6.119958696E-3	-1.219780628E-3	2.042324336E-4
8.69	-6.540762423E-3	-3.596319665E-4	5.369464607E-5
8.700000000000001	-6.336184223E-3	3.584543144E-4	2.650377964E-4
8.71	-6.597838527E-3	-5.746632505E-4	2.061307189E-4
8.72	-6.794156819E-3	-9.605182891E-4	-4.614082880E-4
8.73	-5.772073606E-3	-5.135348275E-4	-2.133066667E-4
8.74	-3.832361379E-3	-2.912295247E-4	9.093160262E-5
8.75	-2.091233548E-3	-4.321653525E-4	-6.150929113E-5
8.76	-1.244763842E-3	-5.409608138E-4	2.209361350E-4
8.77	7.988527982E-4	-1.768822258E-4	-1.822324418E-4
8.78	4.412670495E-3	-5.556845568E-4	1.198978093E-3
8.790000000000001	4.929743088E-3	-1.092353476E-4	3.843785547E-4
8.8	7.337200325E-3	-1.904780665E-3	-2.342850878E-4
8.81	8.199955476E-3	-2.435973852E-4	-1.478837370E-5
8.82	8.443476785E-3	1.068352781E-3	-6.163070373E-4
8.83	8.095713434E-3	1.225404675E-3	-8.306599590E-4
8.84	6.514491911E-3	2.306624212E-4	-7.001844505E-4
8.85	5.195888103E-3	-1.074041801E-3	-3.779485868E-4
8.86	4.137384265E-3	-1.485475697E-3	-7.739814743E-5
8.870000000000001	1.500421546E-3	-1.213275017E-3	3.429558417E-4
8.88	-2.466813116E-3	-4.782282597E-4	9.344452168E-5
8.89	-5.692452559E-3	-6.296951798E-4	-5.912090058E-5
8.9	-7.870169753E-3	-1.083195132E-3	2.086617412E-4
8.91	-1.048324557E-2	2.023527424E-5	-2.166236348E-5
8.92	-1.264343072E-2	-9.958275479E-4	6.298689238E-4
8.93	-1.324537087E-2	-7.103695306E-4	-7.835195864E-4
8.94	-1.577776936E-2	4.795566836E-4	1.685794852E-3
8.950000000000001	-1.618788158E-2	2.257348193E-5	1.275602699E-3
8.96	-1.422921987E-2	-5.481348681E-4	-5.202611735E-4
8.97	-1.221535590E-2	4.833613887E-4	-6.959124160E-4
8.98	-1.050408397E-2	-4.790815066E-4	-1.145772142E-3
8.99	-7.410855365E-3	-1.207260960E-3	2.172440632E-4
9.0	-3.898679751E-3	-3.055317312E-4	7.771186151E-5
9.01	-7.809122286E-4	-5.005181250E-4	-9.758380021E-5
9.02	2.058753683E-3	9.299014611E-6	-3.476061370E-4
9.03	4.313237878E-3	-9.194601547E-5	-3.636607820E-4
9.040000000000001	5.859602694E-3	-8.196434604E-5	-2.095503703E-4
9.05	7.407573836E-3	7.525341300E-4	-5.028258000E-4
9.06	9.039677002E-3	1.193013424E-4	-3.815572322E-4
9.07	8.405275485E-3	1.952264917E-4	7.310854113E-4
9.08	7.618293026E-3	3.754406369E-4	4.889424002E-4
9.09	5.259998847E-3	8.474048885E-4	4.808680748E-4
9.1	2.712437553E-3	-5.989080413E-4	-1.500497008E-4
9.11	3.843232515E-4	-1.142860112E-3	1.075928942E-3
9.120000000000001	-9.863113509E-4	-1.272667455E-3	-3.018983619E-4
9.13	-2.391030691E-3	-1.282446432E-3	-2.463891089E-4
9.14	-3.865031110E-3	-1.151095080E-4	-2.992743602E-4
9.15	-5.785897617E-3	2.130602767E-4	1.378315732E-4
9.16	-6.615322104E-3	-2.933185269E-4	5.366218476E-4
9.17	-7.357916527E-3	-3.860822721E-5	3.192096502E-4
9.18	-7.396942319E-3	-4.130065824E-4	1.712758179E-4
9.19	-6.891828549E-3	-1.118131114E-3	1.359663148E-4
9.200000000000001	-6.242789943E-3	-5.169147859E-4	2.010476904E-4
9.21	-5.282368659E-3	7.333005661E-4	3.427258979E-4
9.22	-5.307532523E-3	6.599136917E-4	-4.928481446E-4
9.23	-2.644243429E-3	3.867537024E-4	-1.044558939E-3
9.24	1.009620666E-3	-1.284754169E-3	5.579244858E-4
9.25	2.884337629E-3	-5.248626365E-4	-2.194257487E-4
9.26	5.439683294E-3	-1.025923884E-4	-1.620074921E-4
9.27	7.660014215E-3	4.541536760E-4	-7.695923099E-4
9.28	9.203522144E-3	7.830794800E-4	-1.694929743E-4
9.290000000000001	1.174088327E-2	4.685016434E-4	6.822208601E-4
9.3	1.423562043E-2	-2.893715795E-4	1.201068491E-5
9.31	1.419445601E-2	-7.867322665E-4	-6.512652939E-4
9.32	1.486769235E-2	-9.392736855E-4	1.260057597E-4
9.33	1.404372300E-2	3.472910256E-4	5.148823416E-4
9.34	1.151900429E-2	2.255303706E-4	-6.777964343E-4
9.35	9.147848102E-3	8.535834429E-4	-5.419355143E-4
9.36	5.981657106E-3	-3.776212112E-4	7.509710365E-4
9.370000000000001	2.928406833E-3	-8.392845831E-4	1.613763683E-3
9.38	4.684303230E-4	-6.825102367E-4	5.580801014E-4
9.39	-2.432173531E-3	-1.131511563E-3	-3.896701271E-4
9.4	-5.672051540E-3	-1.169467122E-3	-7.589240829E-5
9.41	-7.599064179E-3	-1.380783715E-5	-1.442732976E-4
9.42	-8.238296596E-3	-5.998818011E-4	1.297330575E-5
9.43	-8.870195103E-3	-1.377345709E-3	-4.343936741E-4
9.44	-9.993887571E-3	-1.344664996E-3	-4.247393946E-4
9.450000000000001	-8.392903914E-3	-2.060570907E-4	7.242054667E-5
9.46	-6.895007241E-3	-3.355353146E-4	-9.422944425E-5
9.47	-4.817073816E-3	4.496887772E-4	-1.698378214E-4
9.48	-1.576398410E-3	4.139891075E-4	1.387569344E-6
9.49	1.082237505E-3	-3.114477329E-4	-2.231318464E-4
9.5	3.590619641E-3	-5.216943114E-4	6.107847395E-5
9.51	5.333168446E-3	-2.246809627E-4	3.139379983E-4
9.52	6.268411827E-3	-1.363498619E-4	-3.034702697E-4
9.53	7.932280532E-3	4.369434539E-5	-9.287181869E-4
9.540000000000001	8.125678652E-3	1.159912176E-3	-1.057977266E-3
9.55	7.022134199E-3	8.673139161E-4	-4.524651537E-4
9.56	6.564236385E-3	-6.068041619E-5	3.242428458E-4
9.57	6.144122227E-3	-2.848490766E-4	-7.410016598E-4
9.58	3.955441789E-3	-1.246452692E-4	-1.754580805E-3
9.59	1.319313485E-3	1.640282237E-4	-1.322544165E-3
9.6	-6.994174764E-4	-3.828979438E-5	-8.681632838E-4
9.61	-3.695222547E-3	-1.837876696E-4	2.935061567E-4
9.620000000000001	-5.351080791E-3	-7.118192024E-4	-4.498455329E-4
9.63	-6.802962555E-3	-9.108251482E-4	-7.539701166E-4
9.64	-9.437670965E-3	-3.826176406E-4	1.104047774E-4
9.65	-1.182495896E-2	1.193588524E-4	7.174090469E-4
9.66	-1.262987134E-2	-2.381170895E-4	5.211668877E-4
9.67	-1.275564364E-2	5.347138461E-5	-6.715816551E-6
9.68	-1.209780047E-2	6.335117566E-4	1.562881616E-4
9.69	-1.233136905E-2	-1.742926172E-3	7.256303963E-4
9.700000000000001	-1.075489924E-2	-8.538899611E-4	-1.761108998E-4
9.71	-1.001260253E-2	-2.713575184E-4	2.540771829E-4
9.72	-9.088498009E-3	-1.101892364E-3	2.301900953E-4
9.73	-6.483204524E-3	-1.880525618E-4	-1.097367643E-5
9.74	-2.568318140E-3	3.611609854E-5	-1.335097171E-4
9.75	-4.942898526E-4	-1.723751916E-4	6.962551175E-4
9.76	1.460790779E-3	-5.262051524E-4	3.081969672E-4
9.77	3.979235186E-3	-6.881252638E-4	-7.406642856E-4
9.78	5.774680947E-3	-2.640561368E-4	-4.603952196E-4
9.790000000000001	7.107681843E-3	7.068887059E-4	1.779026136E-4
9.8	8.336769149E-3	1.275744942E-3	1.659885230E-4
9.81	7.977381591E-3	-5.208769294E-4	7.048674263E-4
9.82	7.529991938E-3	-6.877282642E-4	-6.956881259E-4
9.83	5.158361000E-3	-5.912362605E-4	-9.255473459E-4
9.84	3.160196961E-3	-8.541095925E-4	2.267411100E-4
9.85	1.268249523E-3	-3.831787206E-4	2.162272432E-4
9.86	-1.577215322E-3	-2.138042536E-4	-5.020317708E-4
9.870000000000001	-4.256861387E-3	-6.549046263E-4	-8.450632531E-4
9.88	-6.405325930E-3	-9.782101416E-5	-6.862531025E-4
9.89	-7.905900434E-3	1.611344935E-4	-3.175922271E-4
9.9	-9.257518811E-3	-8.743801454E-4	3.336843408E-4
9.91	-1.019456618E-2	-6.764386498E-4	6.645360233E-4
9.92	-9.200321102E-3	1.930842944E-4	5.006421649E-5
9.93	-7.758179140E-3	1.566961318E-4	-3.513307553E-4
9.94	-5.939066798E-3	-9.543356545E-4	5.372862060E-4
9.950000000000001	-2.930396612E-3	-4.267761039E-4	2.614729326E-4
9.96	-6.417699911E-4	-1.183130825E-3	3.778409322E-4
9.97	1.271154607E-3	-7.159930506E-4	-9.845501714E-4
9.98	3.755359304E-3	1.940616399E-4	5.244190848E-4
9.99	5.970435623E-3	-3.462002954E-4	-9.593430119E-4
10.0	8.855234166E-3	-5.989742171E-4	-1.120159068E-3
10.01	1.050689038E-2	-1.410354193E-3	-5.215926728E-4
10.02	1.202176778E-2	-9.982230611E-4	-3.273180426E-4
10.03	1.308251177E-2	3.593175046E-4	-6.341845497E-4
10.040000000000001	1.277646205E-2	3.686216432E-4	-6.616754346E-4
10.05	1.170947503E-2	-2.518481170E-4	-4.580212840E-4
10.06	1.103159236E-2	6.696065618E-4	-1.287916322E-3
10.07	9.693286406E-3	4.159021678E-4	-1.504484637E-3
10.08	8.393474668E-3	-6.567076366E-4	5.586634061E-5
10.09	6.475176025E-3	-1.000699224E-3	1.063654481E-4
10.1	2.905786079E-3	1.170706334E-4	-8.003556075E-4
10.11	-7.967069001E-4	-2.974876074E-4	-8.836780315E-4
10.120000000000001	-2.056521581E-3	-3.856512216E-4	5.554895675E-4
10.13	-3.430118645E-3	3.645294339E-4	9.093220389E-4
10.14	-5.395222301E-3	-5.619806207E-4	3.118183176E-4
10.15	-6.127477449E-3	-6.889682001E-4	-2.237282107E-4
10.16	-6.508549809E-3	-5.735677813E-4	-8.091899501E-4
10.17	-7.134697798E-3	-6.445148285E-5	-3.292631576E-4
10.18	-7.271439749E-3	-2.398657146E-4	-3.027391924E-4
10.19	-6.166372767E-3	-8.710547694E-4	-8.222498380E-5
10.200000000000001	-4.110564914E-3	-1.142176033E-3	7.342623464E-4
10.21	-3.134251202E-3	-9.092847934E-4	9.785262325E-5
10.22	-2.321657567E-3	-1.716031661E-4	-5.483987786E-4
10.23	1.162484496E-4	1.880499914E-4	-4.509953335E-4
10.24	2.924113719E-3	-6.308526611E-4	-4.973941149E-4
10.25	4.780828865E-3	6.719587468E-4	-7.287368525E-4
10.26	7.760130694E-3	-3.275893210E-4	-9.059347537E-4
10.27	8.374121311E-3	-6.838165322E-4	-2.448867446E-4
10.28	1.007030602E-2	-3.479852348E-4	3.596241629E-4
10.290000000000001	8.843023455E-3	-7.140338400E-5	-4.926678002E-4
10.3	7.777378454E-3	3.263150760E-4	3.207694611E-5
10.31	5.895774973E-3	8.765654190E-4	3.858479153E-4
10.32	3.280945396E-3	-2.419838904E-4	1.656462723E-4
10.33	4.458027925E-4	-1.028917806E-3	-7.785387011E-4
10.34	-2.716554032E-3	-4.047510225E-4	-1.069406144E-3
10.35	-5.924216922E-3	-1.962102257E-4	-6.393763186E-4
10.36	-8.452095022E-3	-4.549032616E-4	-1.032165697E-3
10.370000000000001	-1.096393825E-2	3.311501086E-4	-1.154577775E-3
10.38	-1.305210275E-2	1.041167086E-4	-7.363648559E-4
10.39	-1.397475598E-2	-9.560681571E-4	4.952276399E-4
10.4	-1.402588430E-2	-1.474098668E-3	7.575607323E-4
10.41	-1.446086598E-2	-1.684885787E-3	6.996283502E-4
10.42	-1.253925308E-2	-9.180268888E-4	-1.270968938E-3
10.43	-1.088374783E-2	-1.013573167E-3	3.050739920E-4
10.44	-8.998473622E-3	-3.846104901E-4	1.094491958E-3
10.450000000000001	-6.515924984E-3	-4.400864528E-4	-6.392517051E-4
10.46	-3.806433782E-3	-9.142728444E-4	-4.633128181E-4
10.47	-1.827798595E-3	-1.087744462E-3	5.485710701E-5
10.48	-5.128377584E-5	-7.494053573E-4	-1.248861410E-4
10.49	2.120846875E-3	-4.073473716E-5	2.108292147E-4
10.5	4.085972160E-3	4.528587588E-4	6.307667445E-4
10.51	5.458929130E-3	9.434046146E-5	-2.895381115E-4
10.52	6.090255244E-3	-1.583068750E-4	-1.195364922E-4
10.53	5.613520280E-3	-1.138103223E-4	6.158394946E-4
10.540000000000001	5.851236625E-3	-5.925880224E-4	-8.174585867E-4
10.55	4.771151936E-3	-1.710737381E-4	-1.833977176E-4
10.56	4.426423913E-3	-3.433627336E-4	2.465334171E-4
10.57	3.314700291E-3	-2.081747478E-4	-1.378441329E-3
10.58	1.907993806E-3	-5.969821483E-4	-1.447493299E-3
10.59	1.751221012E-4	-1.631594714E-4	-6.782303440E-4
10.6	-1.685485345E-3	-8.310180025E-4	3.967656080E-4
10.61	-4.963830467E-3	-1.988052716E-4	-3.139919135E-4
10.620000000000001	-6.980380272E-3	3.313278869E-4	-7.561631740E-4
10.63	-7.683430909E-3	3.499313710E-4	-6.734447542E-4
10.64	-7.576251323E-3	-1.312846812E-4	-6.048490245E-4
10.65	-7.974740684E-3	-3.828124991E-4	-1.908649763E-4
10.66	-8.790676098E-3	-6.397362257E-5	-2.057712980E-4
10.67	-7.615224524E-3	-5.187436271E-4	-8.614627257E-4
10.68	-6.210859944E-3	-9.001047732E-4	-4.896171074E-4
10.69	-2.954802916E-3	-7.200426283E-4	-7.220866443E-4
10.700000000000001	-1.084069451E-3	-6.736982144E-4	1.149868417E-4
10.71	1.910895286E-3	-1.174654212E-3	-2.190595012E-3
10.72	5.389975816E-3	-4.925845650E-4	-5.089955431E-4
10.73	7.705792737E-3	1.289398402E-4	-1.522165998E-3
10.74	1.026115299E-2	-8.483705271E-4	-6.514341759E-5
10.75	1.146996933E-2	-3.793296417E-4	-3.872532673E-4
10.76	1.292228247E-2	6.876523626E-4	-1.189947004E-3
10.77	1.400244866E-2	-1.522056292E-4	-1.110464838E-3
10.78	1.387408924E-2	-1.184145601E-3	-8.255921807E-5
10.790000000000001	1.200340741E-2	-1.087472095E-3	2.098964421E-4
10.8	9.478263216E-3	-9.235049099E-4	-4.599891431E-4
10.81	8.065518101E-3	-7.023492575E-4	-7.166466405E-4
10.82	5.673552905E-3	2.672268428E-4	-1.131280491E-3
10.83	2.584175200E-3	3.942657441E-4	-1.092786243E-3
10.84	1.321627224E-4	-4.055288369E-4	-1.001122603E-4
10.85	-2.387953836E-3	-2.629631416E-4	-9.399698276E-4
10.86	-5.980681155E-3	-5.756541633E-4	5.077370851E-5
10.870000000000001	-6.617933339E-3	2.795542422E-4	9.999677319E-5
10.88	-6.903626631E-3	-3.977849155E-4	7.073338187E-4
10.89	-8.610694332E-3	-5.911260852E-5	1.301545287E-3
10.9	-7.160458576E-3	-9.046708599E-4	1.997249655E-4
10.91	-6.176859270E-3	-1.057535301E-3	1.252122301E-5
10.92	-5.252249470E-3	-7.288761072E-4	-5.544253557E-4
10.93	-3.529353231E-3	2.490709831E-4	-4.128497729E-4
10.94	-1.158356451E-3	7.591804533E-4	-1.746496042E-4
10.950000000000001	5.452250632E-4	3.736335581E-4	-6.072673334E-4
10.96	1.806308324E-3	-2.998478998E-5	-6.709246708E-5
10.97	4.070244280E-3	-4.081001031E-4	2.196214701E-4
10.98	5.464983841E-3	-1.523400942E-4	-6.003577266E-4
10.99	5.681716808E-3	-3.149998715E-4	-6.444483180E-6
11.0	6.379342835E-3	8.582447882E-4	-1.075139158E-3
11.01	7.427051667E-3	1.249917553E-4	-3.134102048E-4
11.02	5.820363230E-3	-5.030119267E-4	-7.155866524E-5
11.03	6.383235705E-3	-9.589849978E-4	-7.072512948E-4
11.040000000000001	5.704278841E-3	-5.251629484E-4	-1.499772960E-4
11.05	4.424147664E-3	-8.664172055E-4	4.609746105E-4
11.06	2.264426866E-3	-3.428055203E-4	7.667876345E-5
11.07	-1.921762213E-4	2.762582346E-4	-6.731053025E-4
11.08	-3.196262968E-3	-9.790801743E-5	-1.629743800E-4
11.09	-5.766717662E-3	-2.356518687E-4	-1.139908296E-4
11.1	-8.002537732E-3	-3.172996373E-4	-2.679021258E-4
11.11	-1.076968118E-2	-7.080005498E-4	-3.130206223E-5
11.120000000000001	-1.309445016E-2	-8.184454487E-4	3.179456372E-4
11.13	-1.395217273E-2	-5.598803705E-4	4.581433257E-4
11.14	-1.486989774E-2	-4.939713276E-4	-6.478134181E-4
11.15	-1.377517071E-2	-3.473283159E-4	-5.167390127E-4
11.16	-1.225789356E-2	-1.120550477E-3	-1.136270614E-3
11.17	-9.847470753E-3	-7.824695267E-4	6.304582718E-5
11.18	-7.824915322E-3	-5.972301658E-5	-1.936823591E-3
11.19	-5.179242180E-3	-2.992130734E-4	-1.152442445E-4
11.200000000000001	-3.670676847E-3	8.158301999E-5	-5.142665666E-4
11.21	2.806692129E-4	-2.806439839E-4	-2.928586676E-4
11.22	2.662599023E-3	-3.076880392E-4	-3.271206056E-4
11.23	4.773902788E-3	-2.244482198E-4	-6.278325762E-4
11.24	7.018051684E-3	-3.489965729E-4	-5.165739516E-4
11.25	7.837377564E-3	-3.689812396E-4	-2.478439979E-4
11.26	7.567389560E-3	-1.278498956E-4	-7.100969866E-4
11.27	6.953055401E-3	-2.174354497E-4	-5.900946693E-4
11.28	6.326351038E-3	-6.879384464E-4	6.572791764E-4
11.290000000000001	4.680949418E-3	-6.441151944E-4	7.982915100E-4
11.3	2.520875228E-3	-8.169064183E-4	-2.608653795E-4
11.31	1.632460323E-3	-5.502226173E-4	1.215171256E-4
11.32	-1.814905004E-3	2.113690440E-4	-2.299729999E-4
11.33	-3.553659423E-3	9.151958853E-4	1.843388236E-4
11.34	-5.629234766E-3	-3.066681870E-5	-2.010153437E-4
11.35	-7.082986814E-3	-1.389246948E-4	-1.287813958E-3
11.36	-7.519438349E-3	-9.320149181E-4	-3.980598688E-4
11.370000000000001	-7.867653140E-3	-2.141439564E-4	-2.075662862E-4
11.38	-7.278984560E-3	-4.166797995E-4	-1.511896440E-4
11.39	-6.749452652E-3	-1.307276505E-5	3.548331711E-4
11.4	-5.372781496E-3	-1.983509150E-4	5.385766949E-4
11.41	-3.615463077E-3	-2.355584683E-4	9.410673615E-5
11.42	-1.922557750E-3	-9.841273336E-4	3.302492707E-5
11.43	4.255066657E-5	-3.884227845E-4	-3.966073435E-5
11.44	2.085153653E-3	6.486271010E-4	-4.937729044E-4
11.450000000000001	3.944108862E-3	6.571018302E-4	-3.382220188E-4
11.46	6.179814024E-3	6.536633283E-4	1.848645631E-4
11.47	8.619141879E-3	-9.964178482E-5	-1.542710866E-5
11.48	1.048846542E-2	-1.379458369E-3	2.840615370E-4
11.49	1.149835233E-2	-1.408876496E-3	6.840528674E-5
11.5	1.141374496E-2	-5.465159196E-4	2.157284059E-4
11.51	1.139860894E-2	-1.268315968E-3	3.481800711E-4
11.52	1.125346375E-2	3.323116908E-4	-2.816037867E-4
11.53	1.095082615E-2	7.649336720E-4	-9.987934900E-4
11.540000000000001	9.102554199E-3	-5.682881945E-4	-9.209457465E-4
11.55	7.050351770E-3	-1.478933505E-4	-9.078064272E-4
11.56	4.118491522E-3	-5.035429154E-4	-1.892328767E-4
11.57	1.473633108E-3	-3.256844104E-5	-3.933656627E-4
11.58	-6.565977670E-4	4.067524738E-4	3.450476124E-5
11.59	-2.690751945E-3	-3.703186526E-4	5.396407878E-4
11.6	-5.744365244E-3	-1.345045070E-3	-2.259783128E-4
11.61	-8.321498427E-3	-1.319692069E-3	-7.490555603E-5
11.620000000000001	-8.545699751E-3	-9.212610445E-4	7.750304057E-4
11.63	-9.002106683E-3	2.108647164E-4	2.918715397E-4
11.64	-8.388955820E-3	4.992686830E-4	-5.746915892E-4
11.65	-7.440936056E-3	-1.164166733E-4	-1.237180431E-3
11.66	-5.350268400E-3	1.575037929E-3	-1.119047865E-3
11.67	-2.686048871E-3	-1.302060352E-3	-6.562053100E-4
11.68	2.823943954E-4	-7.567043509E-4	-2.658955636E-4
11.69	2.451349201E-3	-9.439975147E-4	1.302027657E-4
11.700000000000001	3.837362658E-3	-1.652668347E-4	2.953525184E-4
11.71	5.452039049E-3	5.725999817E-4	3.246022958E-4
11.72	6.124755086E-3	-8.783228897E-7	3.193470186E-4
11.73	7.332190150E-3	-9.323708105E-4	5.280068033E-4
11.74	8.327695391E-3	-6.373786038E-4	8.078257959E-4
11.75	7.790462313E-3	1.898653676E-4	6.100847194E-4
11.76	6.857690418E-3	5.213630040E-4	2.483376372E-4
11.77	5.110363579E-3	1.134777691E-3	4.407602845E-5
11.78	2.636322567E-3	6.734028105E-4	-4.289919562E-4
11.790000000000001	1.633533000E-4	3.318236446E-5	1.759407151E-6
11.8	-1.540714764E-3	-3.458005234E-4	6.417856289E-5
11.81	-4.109114223E-3	-8.670478135E-4	-1.287524545E-4
11.82	-6.818489895E-3	-4.953149655E-4	7.953266779E-4
11.83	-8.812836238E-3	-6.659486677E-4	-2.984463357E-6
11.84	-1.105043808E-2	-1.196039710E-3	8.399395143E-4
11.85	-1.154875360E-2	-1.365607510E-3	1.338593057E-3
11.86	-1.183399293E-2	-5.972266535E-4	-6.068803699E-4
11.870000000000001	-1.273772709E-2	-1.135898127E-3	-1.327125036E-3
11.88	-1.249211460E-2	-6.427213520E-4	-1.014580723E-3
11.89	-1.078334491E-2	3.953551395E-4	-6.907646569E-4
11.9	-9.339042068E-3	7.488386492E-4	-7.756533055E-4
11.91	-8.446419788E-3	8.865620356E-4	-1.092216834E-3
11.92	-6.368320293E-3	-7.496173798E-5	-9.008290488E-4
11.93	-4.046243094E-3	-8.803090566E-4	-8.498062930E-4
11.94	-1.521612240E-3	-1.308309245E-3	-2.677581582E-4
11.950000000000001	5.118736195E-4	-7.065203498E-4	-2.115952917E-4
11.96	2.106233639E-3	-4.217266112E-4	3.222401297E-4
11.97	5.264752404E-3	-4.797845597E-4	1.368300918E-4
11.98	6.206775395E-3	-6.493845611E-4	-5.553832985E-4
11.99	7.028868589E-3	-3.958655526E-4	6.993910418E-5
12.0	7.658919151E-3	-7.876144452E-4	-3.061076975E-4
12.01	7.163552964E-3	-6.066086273E-5	-6.228264309E-4
12.02	5.785527111E-3	7.349264802E-5	-4.835433150E-4
12.030000000000001	3.951590254E-3	4.434307638E-4	-3.704380536E-4
12.040000000000001	2.054235923E-3	3.721856576E-4	-5.531747843E-4
12.05	3.009227270E-4	-1.108768753E-3	-4.239852200E-4
12.06	-1.617425492E-3	-2.098054399E-3	1.736636213E-4
12.07	-4.747356413E-3	-1.196698140E-3	-2.101213446E-4
12.08	-6.346913654E-3	-5.389269022E-4	-2.790819778E-4
12.09	-7.478567407E-3	-8.462966279E-4	4.956838518E-4
12.1	-9.027838594E-3	3.637430408E-5	1.714800770E-4
12.11	-8.274067241E-3	-7.425493568E-4	-5.376880014E-4
12.120000000000001	-8.870775188E-3	5.492420352E-4	-1.852563615E-4
12.13	-7.745007472E-3	6.659039637E-5	-5.774395625E-4
12.14	-5.988725711E-3	1.184828813E-4	6.781636092E-4
12.15	-2.918655415E-3	-3.172854031E-4	2.802878742E-4
12.16	-1.202104941E-4	-3.589939772E-4	-4.415198417E-4
12.17	2.452710908E-3	-7.955998905E-4	-2.151195428E-5
12.18	5.753203040E-3	-9.361747621E-4	-3.343157859E-4
12.19	9.054005730E-3	-5.479778007E-4	-3.587391118E-4
12.200000000000001	1.088191786E-2	-1.854164287E-4	-6.925480112E-5
12.21	1.153160090E-2	-9.066971441E-5	-1.295608434E-3
12.22	1.182520482E-2	4.200573392E-5	8.124773089E-5
12.23	1.184936473E-2	4.811596501E-4	9.232886723E-4
12.24	1.143708685E-2	9.927765162E-4	-1.601258234E-3
12.25	1.035513669E-2	-8.207542313E-5	-2.962278126E-3
12.26	9.223715914E-3	-5.739978522E-4	1.173680559E-3
12.27	6.865107915E-3	6.383471039E-5	6.310209507E-4
12.280000000000001	5.451599352E-3	-2.341130581E-5	3.160643715E-4
12.290000000000001	3.508788382E-3	9.339161165E-4	-7.834444884E-4
12.3	2.078192337E-3	-4.338674618E-4	1.252435749E-3
12.31	-3.212049189E-4	-1.170970991E-3	1.538590517E-3
12.32	-1.545360848E-3	-1.635598754E-3	-7.755534556E-4
12.33	-3.480868752E-3	-6.809260471E-4	-1.649153509E-3
12.34	-5.784156986E-3	2.550060470E-4	-6.627797081E-4
12.35	-6.669916421E-3	5.746467515E-4	2.861197620E-4
12.36	-7.035979234E-3	1.314006517E-3	1.914139217E-4
12.370000000000001	-7.239602325E-3	-2.026664159E-4	-1.939182585E-3
12.38	-5.864765119E-3	-2.526447639E-5	1.787713350E-4
12.39	-4.604816347E-3	-5.735579485E-4	1.905408100E-3
12.4	-5.072512486E-3	-5.662833777E-5	-1.043306658E-3
12.41	-1.734066057E-3	-1.162267297E-4	-8.872096383E-4
12.42	2.275540084E-4	1.054937673E-4	-4.817537859E-4
12.43	2.805746659E-3	-1.669843020E-3	-4.965377295E-4
12.44	4.340347936E-3	7.387834554E-5	-6.560572231E-4
12.450000000000001	6.737337701E-3	7.069297898E-4	-7.905439445E-4
12.46	7.446700683E-3	8.948181131E-4	-6.850110006E-4
12.47	7.759165070E-3	5.716579348E-4	1.017955880E-4
12.48	7.536900689E-3	3.544429651E-4	3.733819866E-4
12.49	6.529558954E-3	-2.812168549E-4	1.483252410E-5
12.5	5.265274438E-3	-1.089640831E-3	-6.009413526E-4
12.51	4.218516137E-3	-7.479352540E-4	-1.068838335E-3
12.52	2.638653064E-3	-9.584519600E-4	5.835372608E-4
12.530000000000001	-1.619740960E-3	-1.602488775E-3	9.918793760E-5
12.540000000000001	-4.843838927E-3	-1.354521765E-3	-1.269913828E-4
12.55	-7.636797922E-3	-2.909900136E-4	2.119190835E-5
12.56	-9.232705879E-3	-9.494087666E-4	6.105358756E-4
12.57	-1.083414092E-2	-7.212082258E-4	-3.683873694E-4
12.58	-1.189084446E-2	-5.884728816E-4	4.262264455E-4
12.59	-1.325430592E-2	2.004992575E-5	-3.922136284E-4
12.6	-1.420537732E-2	-1.549789256E-4	-6.416212232E-4
12.61	-1.324120641E-2	1.741875750E-4	1.975437456E-4
12.620000000000001	-1.142283893E-2	3.256198513E-4	5.639012770E-4
12.63	-9.419344233E-3	-6.508972971E-4	4.430353125E-4
12.64	-7.020606801E-3	-1.254598489E-3	2.587699099E-4
12.65	-4.786557855E-3	-8.073193781E-4	8.331481572E-5
12.66	-3.013315192E-3	-1.894088573E-4	-1.017740532E-4
12.67	-5.114389322E-4	1.122603584E-3	-3.812115458E-4
12.68	1.388831905E-3	1.817712985E-3	9.579756343E-4
12.69	3.473998561E-3	1.579309500E-4	-6.599876971E-4
12.700000000000001	5.426870743E-3	-2.043561821E-4	-1.744160571E-4
12.71	7.162786973E-3	-2.062483698E-4	-1.498286569E-4
12.72	7.015222785E-3	-4.965387394E-4	6.202372868E-4
12.73	5.606573460E-3	-7.139307278E-4	4.942237927E-4
12.74	4.021556853E-3	4.696932228E-4	1.128496611E-4
12.75	3.677457608E-3	3.630679962E-4	-2.044774302E-4
12.76	2.734371382E-3	-1.355452668E-4	2.177654081E-4
12.77	1.608258625E-3	-3.799338897E-4	5.864832337E-4
12.780000000000001	-8.126625702E-5	-6.152354400E-4	1.252837946E-4
12.790000000000001	-2.717712764E-3	-1.010408041E-4	-3.950821587E-4
12.8	-4.644232579E-3	8.858776656E-4	-1.069158871E-4
12.81	-4.901900687E-3	7.611118818E-4	4.199613298E-4
12.82	-5.307726761E-3	-4.429241467E-4	-1.554803332E-4
12.83	-6.335224000E-3	-4.769356108E-4	-3.563924843E-5
12.84	-7.799200179E-3	-1.408178725E-4	-7.321111748E-4
12.85	-7.734215790E-3	-6.477634252E-4	-3.453997740E-4
12.86	-7.756919834E-3	-2.617939382E-4	-1.268451059E-4
12.870000000000001	-5.483785959E-3	-7.609321991E-4	-4.711665622E-4
12.88	-4.440897155E-3	5.071481939E-4	-2.406944226E-4
12.89	-2.041021530E-3	-5.058253071E-4	-1.035656819E-3
12.9	2.159406742E-4	-5.903042505E-4	-6.380421436E-4
12.91	2.834022190E-3	2.946639635E-4	-6.725527187E-4
12.92	6.032450581E-3	7.723329065E-4	-7.830277703E-4
12.93	8.573641855E-3	3.244687075E-4	-2.077457386E-4
12.94	1.053946912E-2	-2.415333696E-4	4.661032046E-5
12.950000000000001	1.228752501E-2	-8.007802138E-4	-3.981799563E-4
12.96	1.369859723E-2	-1.207052311E-3	-5.278213034E-4
12.97	1.393472322E-2	9.672727732E-4	3.725044970E-4
12.98	1.224133491E-2	5.995398925E-4	-7.416008305E-4
12.99	1.099296858E-2	1.640556012E-4	-3.379911372E-4
13.0	9.400048508E-3	-3.215909686E-4	9.125275171E-4
13.01	8.013207418E-3	-3.556466668E-4	-3.807132089E-4
13.02	3.939467487E-3	-1.920795409E-3	-4.749840554E-4
13.030000000000001	5.829221263E-4	-4.101143069E-4	-2.643959884E-4
13.040000000000001	-1.343495379E-3	-4.767819832E-4	-4.120883576E-4
13.05	-3.404493027E-3	-8.891405888E-4	5.620978673E-5
13.06	-5.543801148E-3	2.047506927E-5	5.935113887E-4
13.07	-6.564453105E-3	1.172660762E-4	8.801291484E-4
13.08	-6.282835074E-3	-7.337541703E-4	8.997735560E-4
13.09	-6.093161633E-3	-1.094471591E-3	1.066867369E-3
13.1	-6.075593691E-3	-8.297904937E-4	9.096131949E-4
13.11	-5.069441114E-3	-9.044709740E-4	-3.581397757E-4
13.120000000000001	-3.900401779E-3	-1.558493786E-3	-1.119152474E-3
13.13	-3.318009298E-3	-3.171713913E-4	-8.564612603E-4
13.14	-3.740336004E-4	-6.382448513E-4	-5.937571671E-4
13.15	1.690788010E-3	-5.677982720E-4	-5.817279172E-5
13.16	2.878800490E-3	-5.920636003E-4	2.641865190E-4
13.17	3.488744806E-3	7.241219128E-4	-4.582118507E-4
13.18	4.935879938E-3	2.018848979E-4	-1.729298957E-4
13.19	6.089693481E-3	1.422376358E-4	-1.839858504E-4
13.200000000000001	6.635402326E-3	-5.325075163E-4	-1.871606003E-4
13.21	7.423876758E-3	-6.755956597E-4	-4.967883835E-4
13.22	6.397074070E-3	-2.475692365E-4	-8.907947651E-4
13.23	5.236726505E-3	2.189293264E-4	-4.529970905E-4
13.24	3.745151187E-3	8.172528115E-5	1.115045550E-4
13.25	1.113388610E-3	-3.984932674E-4	-3.612637520E-4
13.26	-7.553837457E-4	-9.276488387E-5	-1.054190031E-3
13.27	-2.496194415E-3	-4.155483728E-4	1.107869204E-4
13.280000000000001	-3.825019747E-3	-1.112748772E-3	1.613175108E-4
13.290000000000001	-6.943844897E-3	6.114702021E-5	-3.902888910E-4
13.3	-9.107620565E-3	-6.853227619E-4	-9.210138212E-4
13.31	-1.061176625E-2	-3.939538270E-4	2.265865958E-4
13.32	-1.230190046E-2	-5.189402372E-4	1.060329525E-3
13.33	-1.271435645E-2	-5.516161691E-4	5.774076310E-4
13.34	-1.281909887E-2	-9.641639237E-4	5.347869790E-4
13.35	-1.247144139E-2	-1.019296207E-3	2.514734104E-4
13.36	-1.157430584E-2	-2.357660003E-4	9.851029073E-5
13.370000000000001	-9.688946984E-3	-3.823908473E-4	-3.010124581E-4
13.38	-6.969343078E-3	-3.339789553E-4	-1.462436957E-4
13.39	-4.031141507E-3	2.570539238E-4	2.394857545E-4
13.4	-1.359923193E-3	2.714835094E-4	-1.672911369E-5
13.41	8.229989364E-4	-1.215012648E-4	-2.998706554E-4
13.42	2.897015787E-3	1.309465556E-5	-1.968737613E-4
13.43	5.535060210E-3	-5.134496684E-4	-1.305612061E-3
13.44	5.959239520E-3	-1.017743902E-3	8.277945037E-4
13.450000000000001	7.143789478E-3	1.960308957E-4	-5.001362948E-4
13.46	7.754260597E-3	-5.759956778E-4	5.948121837E-4
13.47	6.091005168E-3	-7.636732923E-4	1.467977138E-4
13.48	5.497588794E-3	-2.873913462E-5	1.532817603E-4
13.49	3.468719828E-3	1.202948372E-4	-2.295473931E-4
13.5	9.575678189E-4	5.550044149E-4	2.266348514E-4
13.51	-1.264533868E-3	1.032845436E-3	2.146098375E-4
13.52	-3.012862987E-3	-4.499882452E-4	-7.935349314E-5
13.530000000000001	-4.653911387E-3	-8.251703862E-4	1.363908400E-3
13.540000000000001	-6.384822985E-3	-2.537933823E-4	1.470022562E-3
13.55	-7.715161854E-3	-1.189525230E-4	-1.332633360E-3
13.56	-8.067200352E-3	4.554991970E-4	-2.259387306E-3
13.57	-7.552272944E-3	3.323053280E-4	7.932469634E-4
13.58	-7.755207929E-3	-1.330898385E-3	8.596197226E-4
13.59	-6.438127635E-3	-2.342181149E-4	5.322296589E-4
13.6	-3.967928425E-3	-2.290201695E-3	-1.725713034E-3
13.61	-2.926378558E-3	3.412896697E-5	2.494747794E-4
13.620000000000001	-9.177312850E-4	2.341069723E-4	4.051742439E-4
13.63	1.199811203E-3	-6.344033272E-4	-4.663248166E-4
13.64	2.863051711E-3	-2.826967083E-4	-1.154458145E-3
13.65	4.333372678E-3	-2.756948544E-4	-9.171814695E-4
13.66	6.800702136E-3	-1.152471724E-3	-2.069409675E-4
13.67	8.816667220E-3	1.993675009E-4	1.073828244E-4
13.68	9.874676874E-3	6.278791033E-4	1.925536196E-4
13.69	1.086418894E-2	5.204229902E-5	-4.665997950E-4
13.700000000000001	1.116880920E-2	2.849187237E-4	-9.272439444E-4
13.71	1.034988710E-2	2.364473033E-4	1.678394761E-4
13.72	1.007450393E-2	-1.172304463E-4	-2.552216394E-4
13.73	9.840361883E-3	-4.257000418E-4	4.193707121E-4
13.74	7.134284435E-3	-2.882892893E-4	-4.685609689E-4
13.75	5.812229741E-3	-6.419468617E-4	2.344912798E-4
13.76	2.767990482E-3	-3.278738826E-4	4.113133109E-4
13.77	1.547965244E-3	3.526958593E-4	2.928725114E-4
13.780000000000001	-1.442128624E-3	-8.306186317E-4	-7.823801888E-5
13.790000000000001	-4.350065702E-3	-1.226289522E-3	-5.557351892E-4
13.8	-5.032742948E-3	-6.012924159E-4	-3.144606102E-4
13.81	-5.860436812E-3	-2.993768431E-4	-4.063967162E-4
13.82	-7.235197958E-3	-6.723717013E-4	-6.274827312E-4
13.83	-7.385591140E-3	-6.483523591E-4	-5.794122143E-4
13.84	-6.804836652E-3	-1.894192066E-4	-4.590489415E-4
13.85	-5.391253171E-3	-6.658182362E-5	-4.117482135E-4
13.86	-3.016243591E-3	-6.375469303E-4	-4.423320514E-4
13.870000000000001	-1.083137773E-3	-9.750865774E-4	-7.959654073E-6
13.88	9.201116797E-4	-2.978567540E-4	8.275399491E-5
13.89	3.272401842E-3	6.420917632E-4	-9.536651525E-5
13.9	4.729212233E-3	1.636859450E-4	-1.394718714E-3
13.91	6.660004658E-3	-2.799897462E-4	-3.796641672E-4
13.92	7.407502234E-3	-7.517115968E-4	-8.997597998E-4
13.93	8.363900221E-3	-1.462955463E-4	-4.379502194E-4
13.94	8.076498849E-3	3.948338056E-4	-6.827025651E-4
13.950000000000001	6.737304856E-3	6.641502231E-4	-7.213075079E-4
13.96	5.366539597E-3	2.458957375E-4	-7.206056113E-4
13.97	3.384689165E-3	-4.097984615E-4	-9.969550450E-4
13.98	6.389427640E-4	-6.234734093E-4	-5.657674448E-4
13.99	-1.472759220E-3	-7.847128914E-4	2.359742577E-4
14.0	-4.013346250E-3	-1.058990627E-3	7.077504395E-6
14.01	-6.513675717E-3	-8.897861888E-4	-5.479545681E-5
14.02	-7.838855571E-3	-2.807902194E-4	-4.248098668E-4
14.030000000000001	-9.910483660E-3	1.529188693E-4	-4.524700486E-4
14.040000000000001	-1.173446549E-2	-5.874662802E-4	-5.300465071E-4
14.05	-1.099923613E-2	-2.882582450E-4	2.275677423E-5
14.06	-1.238156040E-2	-8.095874458E-4	9.045536673E-4
14.07	-1.096236328E-2	-6.055775601E-4	-8.411432686E-4
14.08	-1.049008913E-2	-5.642196063E-4	-3.134739987E-4
14.09	-9.264675392E-3	-1.635077242E-4	5.169992191E-4
14.1	-8.292268623E-3	-9.040786299E-4	-3.718583362E-4
14.11	-7.670392878E-3	-6.363121967E-4	-3.358740263E-4
14.120000000000001	-5.604631894E-3	2.486283366E-4	-1.605343805E-4
14.13	-2.995549908E-3	2.027358565E-4	-8.209284661E-4
14.14	-1.578194072E-3	9.148267808E-5	-4.478462176E-4
14.15	7.277815198E-4	9.442345676E-5	-8.542652329E-4
14.16	2.324020908E-3	-9.820686848E-5	-1.287123073E-3
14.17	4.337214211E-3	-6.792823069E-4	4.999403400E-4
14.18	6.065274703E-3	-9.821509138E-5	-3.534131610E-4
14.19	5.200057783E-3	5.937986090E-4	7.118612422E-5
14.200000000000001	5.740975500E-3	7.228816020E-4	-1.258799868E-3
14.21	6.003017143E-3	3.656157026E-4	-1.444373124E-3
14.22	4.975766247E-3	-1.727613311E-4	-3.089051622E-4
14.23	3.104742306E-3	6.236235669E-5	-6.020095813E-4
14.24	5.427763333E-4	-1.005951617E-3	-1.216840715E-3
14.25	-1.642664351E-3	-1.662760097E-3	-2.964559239E-4
14.26	-3.885047513E-3	-1.008512848E-3	7.447564056E-4
14.27	-5.259152713E-3	-8.259468046E-4	1.268025994E-4
14.280000000000001	-6.872450740E-3	-6.798489798E-4	-4.989274287E-4
14.290000000000001	-8.647743777E-3	-6.074972431E-4	-1.320025312E-4
14.3	-8.905444518E-3	-4.631944013E-4	-1.054450630E-5
14.31	-8.023791017E-3	4.623764953E-4	-9.090472820E-4
14.32	-7.608143096E-3	2.499998298E-4	-4.278672458E-4
14.33	-6.951894389E-3	2.763054742E-4	-1.310763493E-3
14.34	-4.114877374E-3	-4.060514166E-4	-7.293629020E-4
14.35	-1.467966218E-3	9.010557589E-4	-1.642743278E-3
14.36	2.012380165E-3	-1.020277199E-3	-3.088061654E-4
14.370000000000001	4.925765998E-3	-3.413203348E-4	-9.611539993E-4
14.38	6.602914696E-3	-1.026193289E-3	-3.320043060E-4
14.39	8.636517922E-3	-2.444109168E-6	3.226200239E-4
14.4	9.785571304E-3	2.005659326E-4	-5.246987800E-4
14.41	1.083365654E-2	-4.162426716E-5	-1.003459186E-3
14.42	1.184385911E-2	-6.877696000E-5	-8.624401747E-4
14.43	1.194768836E-2	1.520033360E-4	-7.894162933E-4
14.44	1.108673143E-2	3.808825195E-4	-7.525237686E-4
14.450000000000001	9.649512797E-3	2.376997457E-4	-8.208279073E-4
14.46	8.366893455E-3	7.700005040E-5	-6.427092991E-4
14.47	6.662169509E-3	2.069190010E-4	1.778246201E-4
14.48	4.828594621E-3	-1.041726293E-3	-2.093002950E-4
14.49	1.798548012E-3	-8.301332746E-5	-1.359181819E-3
14.5	5.211597849E-4	-6.529929932E-4	-8.161761093E-4
14.51	-1.893041144E-3	-1.388984081E-3	-1.960856184E-3
14.52	-3.105002935E-3	-3.939339419E-4	-1.344854390E-5
14.530000000000001	-4.917040912E-3	-9.288090740E-4	9.660435005E-4
14.540000000000001	-5.092357966E-3	-1.032927800E-3	8.117519506E-5
14.55	-5.358302282E-3	-1.228346094E-3	-1.815493445E-4
14.56	-5.065361293E-3	-8.949196550E-4	-4.019233722E-4
14.57	-4.425167931E-3	-1.257986616E-3	-1.622674570E-3
14.58	-3.529748448E-3	-9.024855567E-4	-2.572112137E-3
14.59	-2.859338607E-3	-2.884310549E-4	1.448922403E-3
14.6	-2.193449376E-3	-8.212821518E-4	5.235377295E-3
14.61	-6.413212494E-4	-1.098089461E-3	-1.347406218E-3
14.620000000000001	8.681302315E-4	-7.259673047E-5	-6.873049010E-3
14.63	4.403543586E-3	-8.102498073E-4	-3.202124504E-3
14.64	4.572303992E-3	-6.087625095E-4	3.798756334E-3
14.65	6.880410799E-3	1.344180706E-3	7.737032232E-4
14.66	7.357196462E-3	2.072164718E-5	-2.533537611E-3
14.67	7.408803528E-3	-2.881146194E-4	-2.306050977E-3
14.68	6.988907539E-3	-4.674897633E-4	9.911578243E-4
14.69	6.007113018E-3	-1.150214163E-3	1.663303910E-3
14.700000000000001	4.719976032E-3	-1.998682634E-4	8.666015174E-5
14.71	2.952332652E-3	-1.204472495E-4	-1.218445511E-3
14.72	3.734035258E-4	-4.538623085E-4	-7.717343736E-5
14.73	-2.227044349E-3	9.012823228E-5	1.938625191E-4
14.74	-4.376704429E-3	-5.521149079E-4	-8.972941757E-4
14.75	-6.355264115E-3	-1.942015393E-3	-1.568428978E-3
14.76	-8.902453975E-3	-1.284224884E-3	-1.089678628E-3
14.77	-1.214585083E-2	-2.048726939E-4	4.081912304E-4
14.780000000000001	-1.285671129E-2	3.759513791E-4	2.049715015E-4
14.790000000000001	-1.301415028E-2	1.279246664E-4	-1.131281497E-3
14.8	-1.244501213E-2	-8.696875827E-4	-1.925768854E-4
14.81	-1.262002220E-2	-6.180516451E-4	-9.066327800E-6
14.82	-1.017948594E-2	-1.241285714E-3	-1.340751916E-4
14.83	-8.991094717E-3	-8.719085927E-4	-8.190999794E-4
14.84	-7.328910787E-3	-5.411822655E-4	6.624840418E-5
14.85	-4.139361216E-3	-4.764964566E-4	-5.142728388E-4
14.86	-1.700543088E-3	5.693913060E-4	-6.684886350E-4
14.870000000000001	9.459280516E-4	-4.165577715E-4	-1.914369463E-4
14.88	3.047526387E-3	-6.872325746E-4	-5.969101518E-4
14.89	4.429204642E-3	-1.730561173E-4	-1.088055760E-3
14.9	5.445450289E-3	-2.327705597E-4	-5.202287592E-4
14.91	5.285125045E-3	5.250350772E-4	7.829210464E-4
14.92	3.826202750E-3	6.946453221E-4	1.430932249E-3
14.93	4.353414001E-3	5.747969039E-4	-8.028811473E-4
14.94	3.768942344E-3	-1.051870390E-3	8.911214471E-4
14.950000000000001	3.084880293E-3	2.678473835E-4	7.377832288E-4
14.96	1.217209891E-3	-5.283945530E-4	-2.056326184E-4
14.97	-7.380105054E-4	-9.875987531E-4	7.164136392E-4
14.98	-1.928290366E-3	-2.457331424E-4	-7.352560225E-5
14.99	-3.961954870E-3	-7.030167319E-4	-3.244121344E-4
15.0	-4.661743883E-3	-1.309171036E-3	-2.181106586E-4
15.01	-5.433143907E-3	-7.050534904E-4	-2.928809999E-4
15.02	-5.760936196E-3	-6.827944789E-4	3.963763820E-4
15.030000000000001	-6.158962059E-3	-5.560911833E-4	6.800862701E-4
15.040000000000001	-6.697299884E-3	-9.846270072E-5	-1.034382413E-4
15.05	-6.680669935E-3	-4.697175494E-4	-6.359131683E-4
15.06	-5.990874512E-3	-9.569918756E-4	1.514644994E-4
15.07	-3.161892696E-3	2.485523591E-4	5.071065223E-4
15.08	-1.850288315E-3	-2.589539060E-4	-2.520342828E-3
15.09	-1.818327949E-3	-1.398965053E-3	4.345514093E-4
15.1	2.942929793E-3	-4.374233954E-4	-8.625947380E-4
15.11	3.693110448E-3	-6.228393882E-4	-1.271254286E-3
15.120000000000001	6.561339471E-3	-9.397400430E-4	-9.230661245E-5
15.13	8.601189914E-3	4.163317400E-4	6.098994735E-4
15.14	1.031719043E-2	4.622924587E-4	2.007882223E-5
15.15	1.183982962E-2	-8.999816615E-4	-1.425457589E-4
15.16	1.243650728E-2	-1.988187112E-4	-8.803152336E-4
15.17	1.291672409E-2	-1.962528862E-5	-8.086202118E-4
15.18	1.187326085E-2	-5.519149102E-4	-5.129079600E-4
15.19	1.002034423E-2	-2.980742413E-4	-4.800985497E-4
15.200000000000001	8.162463692E-3	-3.516614782E-4	-5.632168637E-4
15.21	5.744856922E-3	-1.419040314E-3	-8.859408180E-4
15.22	3.993048806E-3	-1.401554511E-3	-6.249761775E-5
15.23	1.247945512E-3	3.808024097E-4	-2.307717085E-4
15.24	-9.431343686E-4	-3.691051201E-4	-5.861479620E-4
15.25	-3.961005755E-3	-8.203630493E-4	-1.157389274E-3
15.26	-5.458486314E-3	3.664449782E-4	-2.121035898E-4
15.27	-7.380852790E-3	-7.697190928E-4	-3.176965737E-4
15.280000000000001	-7.344292843E-3	-7.016632118E-4	-2.111166730E-3
15.290000000000001	-6.488496123E-3	-4.743694211E-4	-1.676311159E-3
15.3	-6.277027511E-3	-2.402207762E-4	6.025603223E-4
15.31	-4.982037496E-3	-6.917497362E-4	1.048924383E-3
15.32	-2.884624872E-3	-7.767209132E-4	1.265349751E-4
15.33	-7.074687030E-4	-5.045653817E-4	-2.208980936E-4
15.34	1.717483092E-3	-6.776874992E-4	-2.650095446E-4
15.35	3.228963430E-3	-4.243745140E-5	-2.443831702E-4
15.36	4.350698268E-3	-1.539724246E-4	-4.987042176E-4
15.370000000000001	6.054909185E-3	-1.100748761E-3	-5.886193489E-4
15.38	6.111951697E-3	-9.296943580E-5	-9.732594975E-4
15.39	6.018287259E-3	-3.053496480E-4	8.613903187E-4
15.4	6.319245721E-3	-6.335287034E-4	-5.229818602E-4
15.41	6.333436024E-3	5.953305394E-4	-4.132335031E-4
15.42	4.831989989E-3	-8.109644993E-4	-2.940501396E-5
15.43	3.850917576E-3	-6.206929273E-4	-5.844354190E-4
15.44	1.610588204E-3	-4.695253592E-4	-9.626268614E-4
15.450000000000001	-7.946114265E-5	-1.317200420E-3	-1.055252284E-3
15.46	-1.408657414E-3	-1.434296717E-3	-1.108010942E-3
15.47	-3.337488124E-3	-4.004623716E-4	-8.888028377E-4
15.48	-6.014119200E-3	-4.914586778E-4	-1.574447129E-4
15.49	-8.399841723E-3	-1.289937192E-3	-3.864272684E-5
15.5	-1.003358636E-2	-1.185053765E-3	-4.795887296E-4
15.51	-1.164566212E-2	-4.459855013E-4	-1.826708083E-4
15.52	-1.246179407E-2	-7.611696374E-4	-4.194379960E-4
15.530000000000001	-1.243500333E-2	-3.586124390E-4	-2.453067842E-4
15.540000000000001	-1.226472263E-2	-9.091860622E-4	-1.383845651E-4
15.55	-1.068828563E-2	-1.087391788E-3	-2.383566297E-4
15.56	-9.930345319E-3	-8.252064005E-4	3.386455534E-5
15.57	-8.368798768E-3	-3.430367967E-4	8.347346784E-4
15.58	-5.569753659E-3	1.191359100E-4	-5.211903298E-4
15.59	-3.263554754E-3	5.022554778E-4	-1.095502088E-3
15.6	-6.012445046E-4	8.324375686E-4	-6.553948922E-4
15.610000000000001	1.705807575E-3	3.003298127E-4	-5.077299973E-4
15.620000000000001	3.525931443E-3	1.171902653E-4	-7.923782059E-4
15.63	4.972565102E-3	-4.565936046E-5	-7.085264420E-4
15.64	6.140274457E-3	-7.599598114E-4	-4.820488205E-4
15.65	6.582752062E-3	6.881501365E-5	-4.685684118E-4
15.66	5.643257157E-3	2.204813763E-4	-2.596225336E-4
15.67	5.066781488E-3	-5.791799206E-4	-3.130534724E-4
15.68	3.757426182E-3	-9.146753056E-4	-3.520366908E-4
15.69	1.752600145E-3	-3.508809733E-4	-2.847215955E-4
15.700000000000001	1.578260469E-4	-4.968130903E-4	6.585854957E-4
15.71	-1.350402168E-3	-2.526878783E-4	-4.379449293E-4
15.72	-3.620493601E-3	-5.836181572E-4	-2.855985880E-4
15.73	-5.331469192E-3	5.550994622E-6	-1.724193455E-4
15.74	-6.956115499E-3	-1.125571719E-3	-6.415302542E-4
15.75	-8.299676386E-3	-7.567198184E-4	-5.340249255E-4
15.76	-8.219177841E-3	-2.827785844E-4	2.790890457E-4
15.77	-7.406970428E-3	-3.667298763E-4	-1.010604372E-4
15.780000000000001	-6.245365334E-3	-3.357856827E-4	-1.320583048E-3
15.790000000000001	-4.314142061E-3	-1.410593827E-4	-4.483103511E-4
15.8	-2.726098485E-3	3.105408377E-4	2.452449481E-4
15.81	-1.600110862E-3	2.580167239E-4	-6.687725231E-5
15.82	6.316370268E-4	-2.220764159E-5	6.823287577E-4
15.83	3.693291281E-3	-1.697544936E-3	5.438647834E-4
15.84	6.811318499E-3	-1.092102286E-3	-6.698672616E-4
15.85	7.790241744E-3	-1.285004376E-4	-1.444028447E-3
15.860000000000001	8.739462352E-3	-1.194754532E-3	-3.702189326E-4
15.870000000000001	9.372966461E-3	-9.888283540E-4	-3.009511394E-4
15.88	1.086710163E-2	-3.206357758E-4	-1.160726764E-3
15.89	1.140961085E-2	3.897896638E-5	-5.223929375E-4
15.9	1.106541607E-2	-3.626301284E-4	-8.265220153E-4
15.91	1.062950986E-2	-6.259538269E-4	-1.288977760E-3
15.92	9.698353289E-3	-3.353923077E-4	-1.035612226E-3
15.93	8.433540326E-3	7.838806966E-4	-1.663513349E-4
15.94	7.033095330E-3	7.689305456E-4	-2.150905703E-4
15.950000000000001	4.143506253E-3	-9.831382698E-4	-8.188144536E-4
15.96	1.796529321E-3	-1.182934588E-3	-1.460823557E-4
15.97	2.075816390E-4	-1.414899941E-3	-5.767200300E-4
15.98	-2.273823563E-3	-1.500522317E-3	-6.202529556E-4
15.99	-2.708985145E-3	1.497575943E-5	-1.574204801E-5
16.0	-4.560391788E-3	2.880745581E-6	-9.769192478E-4
16.01	-5.842934871E-3	-2.926825619E-4	-1.723997001E-4
16.02	-6.956724777E-3	-6.646195035E-4	-4.117250894E-4
16.03	-6.217348295E-3	-1.600650087E-4	5.532569820E-4
16.04	-5.648161441E-3	1.414394917E-4	1.148989954E-3
16.05	-4.618699582E-3	8.167782985E-4	4.378721604E-4
16.06	-2.444403097E-3	-1.328845059E-4	-3.067934423E-4
16.07	-4.380567009E-4	-1.174984627E-3	-4.254391401E-4
16.080000000000002	1.433453039E-3	-8.032973068E-4	-2.778273197E-5
16.09	3.772864602E-3	-7.520006638E-4	1.560659546E-4
16.1	5.340553896E-3	-6.204268265E-4	-2.776243130E-4
16.11	7.135186570E-3	-4.938536395E-4	-3.450891870E-4
16.12	8.307962952E-3	-1.164392614E-4	-3.532789128E-4
16.13	7.288456093E-3	2.926800676E-5	-1.064872427E-3
16.14	6.762559161E-3	7.991959205E-4	-3.998906319E-4
16.15	6.251256316E-3	1.993976896E-4	-3.006200685E-4
16.16	4.251624541E-3	2.991868850E-4	-3.722617863E-4
16.17	1.364382156E-3	9.698436420E-4	-9.205344436E-4
16.18	-2.922422840E-4	2.381368339E-4	2.540631897E-4
16.19	-2.021389779E-3	-7.508253935E-4	-2.989349054E-5
16.2	-4.699225191E-3	-4.646645370E-4	2.391232072E-4
16.21	-6.965414087E-3	-5.355943414E-4	3.243373570E-5
16.22	-8.566610952E-3	-8.502364404E-4	-3.517529726E-4
16.23	-1.003021000E-2	-1.811592678E-4	-6.917701980E-4
16.240000000000002	-1.099720852E-2	6.623584004E-5	-1.122326891E-3
16.25	-1.158323604E-2	-3.067514605E-4	-3.689275522E-4
16.26	-1.206881542E-2	8.526816416E-6	-2.975650926E-4
16.27	-1.123493077E-2	1.332691263E-4	-9.842740190E-4
16.28	-9.477533797E-3	-5.325979182E-4	1.903877463E-4
16.29	-9.217383015E-3	4.938163788E-4	-1.034743055E-3
16.3	-7.215992907E-3	-3.730228497E-4	-1.577402664E-3
16.31	-5.480535182E-3	-2.851853648E-4	-1.036613116E-3
16.32	-2.867504470E-3	3.475997825E-4	1.050343629E-6
16.330000000000002	-7.141860102E-4	-2.089178463E-4	-8.403057174E-5
16.34	9.291321627E-5	-8.994793150E-6	-4.083957125E-4
16.35	2.194561658E-3	-2.683489195E-5	-2.551797825E-4
16.36	4.016528764E-3	9.028754721E-5	8.749639557E-5
16.37	4.649927762E-3	2.461079273E-4	-6.764820816E-5
16.38	5.103769510E-3	3.166321556E-4	-1.677572845E-4
16.39	5.184740911E-3	8.560280567E-5	2.012685316E-4
16.4	4.402409357E-3	-6.399974237E-4	-1.122459413E-4
16.41	3.802998126E-3	-7.075159646E-4	-4.257638805E-4
16.42	2.576054161E-3	-9.986537734E-4	-6.097281227E-4
16.43	1.622888934E-3	-7.479465820E-4	-4.536559749E-4
16.44	-5.618650941E-4	1.720354885E-4	-4.974429452E-4
16.45	-1.645003000E-3	-6.643470967E-4	-1.111199666E-3
16.46	-4.769616653E-3	-7.355473036E-4	-6.540227647E-4
16.47	-5.868277850E-3	-3.576365017E-4	-1.259306223E-3
16.48	-5.920280016E-3	4.692427150E-4	-7.628731540E-4
16.490000000000002	-7.129790413E-3	3.322013582E-4	-7.126541309E-5
16.5	-7.865903954E-3	1.036337581E-4	5.740157007E-4
16.51	-7.620318637E-3	-1.209108347E-4	3.267170878E-4
16.52	-6.760246374E-3	-5.216458555E-4	-1.708582029E-4
16.53	-4.556398290E-3	-5.756450519E-4	6.081211682E-5
16.54	-1.653170300E-3	-6.707567359E-4	4.616227254E-4
16.55	3.348055200E-4	-1.242082113E-3	5.258159217E-4
16.56	2.479448744E-3	-8.879259587E-4	1.878259068E-4
16.57	5.245627570E-3	-4.383298414E-4	-9.177641426E-4
16.580000000000002	7.322775114E-3	-7.273793980E-5	-7.686748616E-4
16.59	9.648354703E-3	-1.320260048E-3	-2.509438950E-4
16.6	1.145595076E-2	5.599809507E-4	-9.115872755E-4
16.61	1.261007632E-2	-8.296980530E-4	-1.101786360E-3
16.62	1.122958481E-2	-1.757385962E-4	-4.913545239E-4
16.63	1.060934088E-2	-7.607379162E-5	-5.396515617E-4
16.64	1.079199920E-2	2.607924220E-4	-1.191365297E-3
16.65	9.584885201E-3	-2.677774231E-4	-1.412400972E-3
16.66	7.061066800E-3	-8.675933909E-4	-1.063705910E-3
16.67	4.820944093E-3	-1.089284026E-3	-2.515022484E-4
16.68	2.950489041E-3	-1.080046234E-3	-4.115716596E-5
16.69	9.677536522E-4	-1.524684554E-4	-5.545938426E-4
16.7	-6.659880354E-4	6.923213406E-4	-4.343547259E-4
16.71	-2.512635000E-3	2.308692943E-4	-9.950898781E-4
16.72	-3.829955037E-3	4.123373650E-4	-1.235901795E-3
16.73	-4.605499100E-3	5.978966102E-4	-4.263363584E-4
16.740000000000002	-5.174905058E-3	-5.570049016E-5	-1.089112566E-3
16.75	-5.845741249E-3	-1.340481530E-3	-7.582862207E-4
16.76	-5.020826264E-3	-1.135197934E-3	-4.735057199E-4
16.77	-4.174146359E-3	-9.529609556E-4	7.156285422E-5
16.78	-3.856186165E-3	-4.492214713E-4	-6.791926229E-4
16.79	-1.659197308E-3	-9.651621729E-4	-1.350455825E-4
16.8	1.174708386E-4	-9.624330883E-4	-2.666177702E-4
16.81	1.382183666E-3	-6.431778661E-4	-5.511511342E-4
16.82	2.708379898E-3	3.288899539E-4	-8.084262393E-4
16.830000000000002	3.845190225E-3	1.325443528E-3	-1.453010830E-3
16.84	5.353393705E-3	6.884738161E-4	-1.608174156E-3
16.85	6.668544895E-3	-2.552682064E-4	-1.144119572E-3
16.86	6.366884757E-3	-1.154239925E-3	-6.573506570E-4
16.87	6.344436158E-3	-8.910893114E-4	-6.760555867E-4
16.88	5.855225460E-3	-5.527514009E-4	-1.388128999E-3
16.89	3.965686855E-3	-3.162974089E-4	4.546795636E-4
16.9	2.014110204E-3	-9.278488617E-4	4.376220665E-4
16.91	1.455968198E-3	-1.353550610E-3	-2.012545332E-3
16.92	-1.030045213E-3	3.446483033E-4	-1.471491700E-3
16.93	-3.873469907E-3	-5.816114538E-4	-1.641313282E-4
16.94	-6.070101106E-3	-8.539268218E-4	2.185042118E-4
16.95	-8.309404761E-3	-1.987684453E-5	1.937792361E-4
16.96	-1.064189628E-2	4.161331894E-4	3.019588771E-4
16.97	-1.207853485E-2	9.226785961E-5	3.431298529E-4
16.98	-1.298723551E-2	-2.645931034E-4	5.822679962E-4
16.990000000000002	-1.319846520E-2	-5.409528606E-4	-3.687666705E-5
17.0	-1.237000272E-2	-6.879619330E-4	-1.281031212E-3
17.01	-1.142780057E-2	-6.174538610E-4	-1.161520055E-3
17.02	-9.873128417E-3	-5.227649154E-4	-1.064231817E-3
17.03	-6.953915835E-3	-1.355585071E-3	-1.052581275E-3
17.04	-4.294835963E-3	-4.372751662E-4	-5.561882740E-4
17.05	-2.949730791E-3	2.282479769E-4	1.157044611E-4
17.06	4.626209761E-5	-2.608365386E-4	1.413281119E-4
17.07	1.775908047E-3	9.680588994E-4	-1.764144261E-4
17.080000000000002	2.732946343E-3	-1.661509796E-4	-1.308024195E-3
17.09	3.604708006E-3	9.384575294E-6	-1.239767527E-3
17.1	5.421895397E-3	-2.542346202E-4	-8.024888214E-4
17.11	5.967162751E-3	-3.382298986E-4	-2.867130048E-4
17.12	5.791994925E-3	5.484282769E-5	-3.551902731E-4
17.13	5.087167029E-3	-4.133284989E-4	-4.283618475E-4
17.14	2.750201325E-3	-1.082912273E-3	2.962283925E-5
17.150000000000002	7.269315032E-4	-6.054762678E-4	-3.228335090E-4
17.16	-8.315617978E-4	-3.642857324E-4	-3.396469055E-4
17.17	-1.312031245E-3	-8.966002335E-6	-2.873518865E-4
17.18	-2.854537925E-3	-1.157166346E-3	3.691099813E-4
17.19	-4.327521619E-3	-1.058977378E-3	5.005776090E-4
17.2	-5.791314924E-3	2.827770228E-4	-8.750603713E-4
17.21	-6.065655733E-3	-2.110368579E-4	-1.667792066E-3
17.22	-6.940558409E-3	8.893015011E-5	-2.332531629E-4
17.23	-5.723780909E-3	-3.266266773E-4	-1.024128337E-4
17.240000000000002	-6.168216094E-3	-3.176483474E-4	-2.777389483E-4
17.25	-5.471446798E-3	-5.721337288E-4	-1.351188588E-3
17.26	-4.181612227E-3	-4.078637204E-4	-1.735323963E-3
17.27	-2.761032550E-3	-2.175313190E-4	-1.365107638E-3
17.28	-9.472385882E-4	-3.965647074E-4	-9.455739286E-4
17.29	1.014621526E-3	-3.078676215E-4	-7.934034690E-4
17.3	3.347812815E-3	-5.802374363E-4	-1.133711600E-3
17.31	5.218943045E-3	-8.866185026E-4	-1.248134080E-3
17.32	7.213621484E-3	3.909785916E-4	-1.877004025E-3
17.330000000000002	1.029402458E-2	4.817659877E-5	1.490420039E-4
17.34	1.103555740E-2	-4.994014719E-4	-3.155417184E-4
17.35	1.149618632E-2	6.367202103E-4	-1.383957871E-3
17.36	1.217720355E-2	5.136812035E-5	-1.527850473E-4
17.37	1.098620728E-2	-5.501781460E-4	-8.751534758E-4
17.38	8.936799909E-3	-4.740164978E-4	-4.343893007E-4
17.39	8.825931237E-3	-9.338678859E-4	-2.377024014E-4
17.400000000000002	7.297606000E-3	-5.142407782E-4	-1.636726293E-4
17.41	4.961246922E-3	-5.852567439E-4	-3.135977383E-4
17.42	2.729638636E-3	-1.086160304E-3	-3.348378710E-4
17.43	2.114538043E-4	-9.283161232E-4	-4.146294802E-4
17.44	-2.285442285E-3	-8.296233105E-4	-3.819876621E-4
17.45	-3.824439891E-3	-5.441493026E-4	-9.191611144E-5
17.46	-4.609240993E-3	3.762685737E-4	-2.395833758E-4
17.47	-6.459884814E-3	-1.973812819E-4	-1.105295458E-3
17.48	-6.544157237E-3	-1.192517642E-4	-8.191936717E-4
17.490000000000002	-4.601693090E-3	-9.659974737E-4	-8.912378804E-4
17.5	-4.617060484E-3	-3.142186913E-4	-6.729769799E-4
17.51	-3.716465133E-3	-1.380365249E-3	-7.703845346E-4
17.52	-1.707011578E-3	-8.433278147E-4	-1.181594931E-3
17.53	-5.975635487E-4	3.832740113E-4	-7.231520947E-4
17.54	1.288361234E-3	1.108365841E-4	-8.164424652E-4
17.55	4.069422593E-3	-2.123751589E-4	-4.828347919E-4
17.56	5.173095925E-3	-6.324975909E-4	7.949378334E-5
17.57	6.223838369E-3	-5.466365893E-4	2.974571078E-4
17.580000000000002	7.037593951E-3	-4.304036717E-4	3.338896105E-4
17.59	7.121852238E-3	-3.753312162E-4	-5.783236662E-5
17.6	6.788531772E-3	-3.467705845E-4	-1.385995363E-4
17.61	5.657353855E-3	-4.872712527E-4	4.944042583E-4
17.62	3.840944731E-3	3.167343082E-4	-8.632724130E-4
17.63	2.769892929E-3	-2.224589767E-4	-6.718223470E-4
17.64	7.955878389E-4	-1.075280551E-3	3.743239563E-4
17.650000000000002	-2.039063471E-3	2.700982907E-4	2.434966501E-4
17.66	-4.713774650E-3	2.232391969E-4	6.823055918E-5
17.67	-5.710264057E-3	-5.187388829E-4	4.403032568E-5
17.68	-7.195267727E-3	-6.058562400E-5	2.895443323E-4
17.69	-8.669004581E-3	-5.453857111E-4	-1.030649460E-4
17.7	-9.649560629E-3	-5.485407960E-4	-5.166410789E-4
17.71	-1.074042352E-2	-3.390113194E-4	-9.880848832E-4
17.72	-1.135587459E-2	5.445044978E-5	-4.397419793E-4
17.73	-1.160392941E-2	2.258170528E-4	-5.047602619E-5
17.740000000000002	-1.153914057E-2	-5.889775584E-4	-3.142607476E-4
17.75	-1.013044239E-2	-1.084557999E-3	-4.293265892E-4
17.76	-7.766942736E-3	-1.578860774E-4	-2.933598069E-4
17.77	-6.295635096E-3	-8.601454752E-4	-6.326005126E-4
17.78	-4.584362574E-3	-3.705928275E-4	-8.964400682E-4
17.79	-3.409210523E-3	4.969264720E-4	-4.017348326E-4
17.8	2.067160480E-4	5.146163259E-5	-2.434126062E-5
17.81	2.421310497E-3	-3.288320273E-4	-9.518311857E-5
17.82	3.701812373E-3	3.614137257E-4	-1.888115743E-4
17.830000000000002	5.784153568E-3	-8.695384184E-5	-6.574288054E-4
17.84	6.552471352E-3	-7.698175531E-4	-2.214172004E-4
17.85	6.089851398E-3	-1.233500905E-3	6.148008393E-4
17.86	5.027187615E-3	-1.286735137E-3	9.306399866E-4
17.87	4.183330898E-3	-5.514023703E-4	5.706020184E-5
17.88	2.961254432E-3	-3.989247172E-4	1.474083515E-4
17.89	1.098076150E-3	-7.226437309E-4	5.578220329E-4
17.900000000000002	-1.094941280E-3	-1.009650840E-3	-2.145213188E-4
17.91	-3.106546761E-3	-9.985573470E-4	-1.170836046E-3
17.92	-4.990899226E-3	5.623269471E-4	-1.151384203E-3
17.93	-7.100141262E-3	-2.269253491E-4	1.275285267E-5
17.94	-7.820532552E-3	-1.845945750E-4	6.288119055E-4
17.95	-7.807462894E-3	-9.326337218E-4	-4.511066952E-4
17.96	-6.876811246E-3	-1.089229342E-3	6.986553824E-4
17.97	-6.537332971E-3	-1.064232562E-3	1.955028065E-4
17.98	-6.027909453E-3	-1.217848806E-3	6.351615828E-4
17.990000000000002	-3.887431479E-3	-8.097769228E-4	6.253906293E-4
18.0	-2.251284402E-3	-7.122894250E-5	1.786978262E-4
18.01	-2.480558499E-4	-7.518204985E-4	-6.008753031E-4
18.02	2.132826844E-3	-1.263256912E-3	-8.750282800E-4
18.03	4.376374028E-3	-6.954347375E-4	-8.912653300E-4
18.04	5.973958963E-3	-4.571787401E-4	-1.101872458E-3
18.05	7.284777216E-3	-5.213318151E-4	-1.039850739E-3
18.06	9.306676939E-3	-7.730352509E-5	-4.192083476E-4
18.07	1.029409529E-2	-2.144304711E-4	-2.580586479E-4
18.080000000000002	1.075437839E-2	4.836898209E-4	-6.058720695E-4
18.09	1.096011151E-2	-6.517785365E-4	-7.308880676E-4
18.1	9.863973655E-3	-1.881036006E-3	-3.684521890E-4
18.11	9.518681419E-3	-2.359359532E-4	-6.190364206E-4
18.12	7.701948234E-3	-4.036601701E-4	-2.095123004E-4
18.13	5.869407906E-3	-5.035290504E-4	-4.046377428E-4
18.14	3.815905286E-3	-5.571376738E-4	-8.947411759E-4
18.150000000000002	2.648747815E-3	-4.160577216E-4	1.472784876E-4
18.16	8.817798425E-4	-5.451602325E-4	-8.898162491E-6
18.17	-1.827761424E-3	-7.767736438E-4	-6.625077706E-4
18.18	-4.202107427E-3	-7.034480487E-4	-3.146209298E-4
18.19	-4.448985967E-3	-5.608449737E-4	-1.151175733E-3
18.2	-5.418523286E-3	-1.716716007E-3	-1.638435857E-3
18.21	-4.654034531E-3	-5.548438996E-4	9.189541495E-4
18.22	-4.693541073E-3	-7.467329070E-4	-6.193694413E-4
18.23	-5.709780965E-3	-3.186993650E-4	-3.627567805E-4
18.240000000000002	-4.483815183E-3	-4.223593972E-4	-3.980248717E-4
18.25	-2.896080062E-3	2.224840764E-4	-6.104248312E-4
18.26	-1.804359659E-3	-2.965288148E-4	-6.998567426E-4
18.27	1.813656972E-4	-6.512299888E-5	-2.941916881E-4
18.28	2.585167447E-3	-1.191385666E-4	2.063983682E-5
18.29	4.910855580E-3	-1.762384340E-4	1.157263583E-4
18.3	6.466272753E-3	1.509272887E-4	2.334188717E-4
18.31	6.750164998E-3	-8.287030026E-4	3.437614460E-4
18.32	7.137394077E-3	-9.529524585E-4	1.493480957E-4
18.330000000000002	6.466981850E-3	-2.880839541E-4	-8.321015429E-4
18.34	6.169880483E-3	6.982676184E-4	-8.070250667E-4
18.35	4.521252842E-3	-6.528653818E-4	-8.873794094E-4
18.36	3.644268167E-3	4.172020585E-4	-1.111323103E-3
18.37	9.163466372E-4	8.381223416E-4	5.917351454E-4
18.38	-8.072709186E-4	4.076877771E-4	8.603721644E-5
18.39	-2.788758598E-3	-2.880542312E-4	4.884275037E-4
18.400000000000002	-5.390681474E-3	-6.195453489E-4	1.492096261E-4
18.41	-7.683634206E-3	-7.294941233E-4	-7.591415908E-4
18.42	-9.836409594E-3	-6.148441584E-4	-3.300655357E-4
18.43	-1.076018712E-2	-7.642974404E-4	9.079165286E-5
18.44	-1.093885716E-2	-8.175857131E-4	1.076075542E-4
18.45	-1.135490608E-2	-6.250852235E-4	-2.740780958E-4
18.46	-1.138165595E-2	-7.527913491E-4	-9.313834503E-4
18.47	-1.017370591E-2	-5.351066245E-4	-2.609170161E-5
18.48	-9.105538034E-3	-3.499300990E-4	-8.396852909E-4
18.490000000000002	-7.279880098E-3	3.871391511E-4	7.465924502E-4
18.5	-5.134501622E-3	8.085684365E-4	-3.108897512E-4
18.51	-3.404261219E-3	-1.487880021E-4	6.019528067E-4
18.52	-7.629672412E-4	-2.785947184E-4	-4.752751483E-4
18.53	9.427246836E-5	-3.613764985E-4	7.318105972E-5
18.54	1.212128033E-3	-5.512220411E-4	-1.527510535E-4
18.55	2.526435095E-3	-7.007542077E-4	-9.031490525E-4
18.56	3.399394489E-3	-5.240265086E-4	-4.669660518E-4
18.57	3.624535940E-3	-4.859131014E-4	-3.295421358E-4
18.580000000000002	4.181926756E-3	-5.974539273E-4	-5.446861279E-4
18.59	4.384314017E-3	-7.006824212E-4	-3.469755098E-4
18.6	3.346651917E-3	-6.440582271E-4	-3.521213743E-4
18.61	1.664639857E-3	-1.572743407E-4	-8.423867589E-4
18.62	-4.401916537E-4	5.412677521E-4	-7.719147248E-4
18.63	3.952347868E-5	2.385922033E-4	-9.078868590E-4
18.64	-1.565716422E-3	9.353183238E-5	-8.686852813E-4
18.650000000000002	-3.808075542E-3	-5.090032700E-4	-1.084907789E-3
18.66	-3.781587399E-3	-6.745538681E-4	-3.356044137E-4
18.67	-6.816733337E-3	-1.407536800E-3	5.497706744E-4
18.68	-7.375406091E-3	-2.193908819E-3	8.576669758E-5
18.69	-8.441815285E-3	-1.393895544E-3	2.202563418E-4
18.7	-7.303942418E-3	-2.262380394E-7	6.231221204E-4
18.71	-5.807647485E-3	-2.846118154E-4	-8.651004129E-4
18.72	-4.989438003E-3	-2.421641681E-4	-3.684128821E-4
18.73	-3.648382214E-3	-3.478734531E-4	5.197604438E-4
18.740000000000002	-1.833566368E-3	-5.249020601E-4	3.346481438E-4
18.75	4.088093989E-5	-5.610138096E-4	8.660208164E-5
18.76	2.371070426E-3	-8.965312413E-4	1.991211454E-4
18.77	4.964187036E-3	-2.699057755E-4	-2.404666008E-4
18.78	7.621095465E-3	3.911112168E-5	-2.577174878E-4
18.79	1.005211618E-2	-1.307637791E-3	-9.903877108E-5
18.8	1.097884052E-2	7.966553007E-4	2.277782431E-4
18.81	1.134210522E-2	-3.499000340E-4	-1.392428720E-4
18.82	1.090505742E-2	2.556768580E-4	-1.392386680E-3
18.830000000000002	1.052430427E-2	8.633257725E-4	-3.524496440E-4
18.84	1.017444774E-2	8.996485933E-4	3.124175595E-4
18.85	8.385870081E-3	-1.573082931E-4	-6.202998979E-4
18.86	6.666153090E-3	2.635916834E-4	5.860651814E-5
18.87	4.838203401E-3	6.876598249E-4	4.517254496E-4
18.88	2.679147800E-3	5.474519504E-5	-2.748637618E-5
18.89	6.579815744E-4	-1.150546120E-3	2.170637433E-4
18.900000000000002	-9.334125796E-4	-2.026230880E-3	6.954948373E-4
18.91	-2.333689858E-3	-2.075239995E-3	-2.284285971E-4
18.92	-3.191055173E-3	-1.060536363E-3	3.907258608E-4
18.93	-5.935411296E-3	-1.325069934E-4	-3.500048959E-4
18.94	-5.147595778E-3	-6.074539719E-4	1.224896392E-3
18.95	-4.446454655E-3	4.945769000E-4	6.614567118E-4
18.96	-3.537108398E-3	3.060134508E-4	8.121307120E-4
18.97	-2.314907486E-3	-5.971377433E-5	9.401401693E-5
18.98	-1.234932111E-3	-1.660098063E-4	-2.215545632E-4
18.990000000000002	3.925517793E-4	-1.347942341E-4	-4.445951623E-4
19.0	2.077281869E-3	-2.155481865E-4	-8.664634773E-4
19.01	2.288033721E-3	-5.418791649E-4	-3.042000408E-4
19.02	2.918503849E-3	-4.152236252E-4	-3.000849926E-4
19.03	4.874528950E-3	-6.242037747E-4	4.137258003E-4
19.04	7.096559678E-3	-6.603823282E-4	3.212654577E-4
19.05	7.322570276E-3	-5.933041890E-4	-3.122909653E-4
19.06	6.534549546E-3	-6.259596046E-5	4.870350516E-4
19.07	6.755491824E-3	-2.980535095E-4	8.200343705E-4
19.080000000000002	4.998296678E-3	1.331943434E-3	1.122994185E-3
19.09	3.611116338E-3	3.416904526E-4	-5.392231176E-4
19.1	1.584566958E-3	-5.596813680E-4	-3.389779169E-4
19.11	1.306811555E-4	-1.220591577E-4	-1.005599370E-5
19.12	-2.189938530E-3	-3.843580203E-4	8.937737799E-4
19.13	-4.404500285E-3	-8.272475675E-4	7.855211124E-4
19.14	-6.011675940E-3	-1.163057439E-3	3.838673161E-4
19.150000000000002	-7.828734364E-3	-9.295381868E-4	4.369563087E-4
19.16	-9.962427117E-3	4.154669051E-5	-4.042187344E-5
19.17	-1.139376000E-2	-7.148877880E-4	2.636703271E-4
19.18	-1.229048892E-2	-4.233400023E-4	4.117129570E-4
19.19	-1.124867773E-2	4.163297380E-4	3.647044617E-4
19.2	-1.071889215E-2	-5.463627993E-4	1.371522042E-3
19.21	-9.156335786E-3	-1.178196317E-3	-2.855636119E-4
19.22	-7.665165269E-3	-4.840339605E-4	1.022132999E-3
19.23	-5.598352252E-3	-1.245280412E-3	1.104928102E-3
19.240000000000002	-3.912017243E-3	1.062544347E-4	-4.196326997E-5
19.25	-2.745599282E-3	4.153238551E-4	-5.065255461E-4
19.26	-2.016848547E-5	-4.106213410E-4	-2.461867636E-4
19.27	1.592663547E-3	-1.449997156E-4	9.592924873E-5
19.28	2.728650483E-3	2.622923385E-4	3.978281403E-4
19.29	4.403419566E-3	1.399739155E-5	4.039016440E-4
19.3	5.356574722E-3	-5.641721527E-4	2.838638669E-4
19.31	4.791503091E-3	-8.506248567E-4	3.937376151E-4
19.32	4.296744308E-3	3.845478369E-4	-3.773853763E-4
19.330000000000002	2.458659512E-3	-2.435973852E-4	5.875523245E-4
19.34	1.285403647E-3	-4.959892084E-4	-2.486798692E-4
19.35	-5.982002222E-5	2.455470847E-5	4.850879643E-4
19.36	-1.877928687E-3	-1.011623638E-3	6.031366419E-4
19.37	-2.887122712E-3	-1.253605444E-3	2.627084293E-4
19.38	-3.695241814E-3	-6.726974166E-4	3.524919570E-4
19.39	-5.051373882E-3	1.319312610E-4	5.932608741E-4
19.400000000000002	-6.253301344E-3	2.277581264E-5	4.080013060E-4
19.41	-6.773315645E-3	-3.646296761E-4	2.859133023E-4
19.42	-6.907616990E-3	1.932410060E-4	7.582962969E-4
19.43	-6.261817419E-3	-6.099316147E-4	1.383837572E-3
19.44	-6.002144252E-3	-4.281414988E-4	8.540778456E-4
19.45	-5.429793144E-3	-1.616843740E-4	2.157267021E-4
19.46	-2.567248280E-3	-5.625053316E-4	7.187779105E-4
19.47	-6.424628016E-4	-6.463668127E-4	8.905371444E-4
19.48	1.717329538E-3	-2.054662077E-3	-1.204574205E-4
19.490000000000002	2.906415120E-3	-8.951057849E-4	4.134172773E-4
19.5	3.945136073E-3	-6.090278165E-4	7.744726355E-4
19.51	6.045097001E-3	-2.396563011E-4	3.109713618E-4
19.52	7.944155444E-3	1.898995287E-4	8.784230496E-5
19.53	9.538033470E-3	2.577652540E-4	-8.278900827E-5
19.54	1.042644816E-2	7.340874825E-4	-2.272311637E-4
19.55	1.022604272E-2	1.075771359E-3	3.459028872E-4
19.56	1.021388137E-2	-9.178063021E-5	1.031510670E-3
19.57	9.897608630E-3	-1.085828789E-3	3.173705079E-4
19.580000000000002	8.518258179E-3	-1.557074030E-3	-8.513143911E-4
19.59	7.306772256E-3	-1.283766915E-3	-2.941572820E-4
19.6	5.366358383E-3	-6.545007819E-4	9.603950966E-4
19.61	2.820663107E-3	-5.816592842E-4	2.074177420E-4
19.62	1.542579606E-3	-7.985709363E-4	4.008576647E-4
19.63	-7.954347920E-4	-1.074221509E-3	9.110488010E-4
19.64	-3.048441921E-3	-7.161728427E-4	-8.598588585E-4
19.650000000000002	-4.709556075E-3	-4.580060743E-4	2.796064086E-4
19.66	-5.792060587E-3	7.301750148E-5	6.541767079E-4
19.67	-5.816706109E-3	2.274833392E-4	6.079437933E-4
19.68	-5.243779279E-3	-3.611406218E-4	6.587244546E-4
19.69	-4.635965228E-3	-1.093185374E-3	9.788689174E-4
19.7	-3.538689935E-3	-1.291386898E-3	8.938522275E-4
19.71	-1.553034534E-3	-1.335631340E-3	1.049254526E-4
19.72	-2.793730287E-5	-1.170942069E-3	4.735743286E-4
19.73	6.599684947E-4	-3.633267909E-4	1.546770622E-3
19.740000000000002	2.732789181E-3	-4.629588441E-4	8.114987884E-4
19.75	4.237759178E-3	-3.391176167E-5	-1.848342882E-4
19.76	5.379586619E-3	-5.031286746E-4	3.941471732E-4
19.77	6.074669751E-3	-1.086129044E-3	4.223320685E-4
19.78	6.245560936E-3	-4.113433045E-4	4.300227468E-4
19.79	6.095423361E-3	-4.114490620E-5	1.362555253E-3
19.8	5.455324573E-3	-1.313880230E-3	1.461132222E-4
19.81	5.100373636E-3	-1.014179401E-3	4.297138033E-4
19.82	3.643092763E-3	-3.179935056E-4	3.527223788E-4
19.830000000000002	1.566308324E-3	-7.849543112E-4	5.418273677E-4
19.84	-1.615036804E-4	-1.060240847E-3	4.795301138E-4
19.85	-2.134897127E-3	-2.978414102E-4	1.566981135E-4
19.86	-4.633294865E-3	-1.234302917E-4	7.021830713E-4
19.87	-5.885984609E-3	-5.139053640E-4	-8.070711508E-5
19.88	-7.906318131E-3	-3.824620515E-4	2.227718985E-4
19.89	-9.555328041E-3	5.055450019E-5	2.944787690E-4
19.900000000000002	-1.019752676E-2	-4.706756617E-4	9.534361435E-4
19.91	-1.012398427E-2	-9.138147189E-4	7.549973117E-4
19.92	-1.042691910E-2	-3.922357974E-4	9.780726122E-4
19.93	-1.016842634E-2	-1.125471218E-4	1.245934768E-4
19.94	-9.251097645E-3	-5.839678962E-4	-5.004204026E-4
19.95	-8.380160811E-3	-8.721630453E-4	5.176488778E-4
19.96	-7.223204382E-3	-7.931281691E-4	7.611839065E-4
19.97	-5.426033804E-3	-6.186390177E-4	5.385111875E-4
19.98	-3.478082000E-3	2.641871130E-4	7.689781123E-4
19.990000000000002	-9.024154187E-4	3.579737846E-4	4.561135695E-4
20.0	2.365037899E-4	-6.416148143E-4	5.454398065E-4
20.01	3.057219858E-3	-4.582371783E-4	6.184653152E-4
20.02	4.052602825E-3	-4.614946219E-4	7.110310698E-4
20.03	3.926783753E-3	4.083299939E-5	7.015164054E-4
20.04	4.923447397E-3	-4.389519847E-4	2.660557575E-4
20.05	4.587142686E-3	-4.014193556E-4	8.337428042E-4
20.06	4.414431242E-3	-2.037338565E-5	6.672280948E-4
20.07	2.972255538E-3	-8.138666792E-4	9.400979531E-4
20.080000000000002	1.213008486E-3	-1.198271363E-3	1.282173152E-3
20.09	-2.024813376E-4	-4.775901709E-4	1.639907341E-3
20.1	-1.835994679E-3	6.068145794E-5	1.478712809E-3
20.11	-3.716773455E-3	1.552013493E-4	8.680033040E-4
20.12	-5.316830515E-3	-4.967652668E-4	5.852042823E-4
20.13	-6.264926635E-3	-1.356564663E-3	6.274014646E-4
20.14	-7.165194268E-3	-4.697333525E-4	1.080632035E-4
20.150000000000002	-7.698003197E-3	-5.704202623E-4	9.599952215E-5
20.16	-7.252778977E-3	-3.992837878E-4	1.282999919E-3
20.17	-6.662924888E-3	-1.268915131E-3	6.659423145E-4
20.18	-4.929846573E-3	7.914015953E-5	-6.708209360E-4
20.19	-3.497748080E-3	-1.060248412E-3	-1.176382477E-3
20.2	-8.052200491E-4	-1.268683477E-3	5.669890585E-4
20.21	1.706144308E-3	-5.216354633E-4	8.524809488E-4
20.22	3.715292089E-3	-1.004637076E-4	4.172759798E-4
20.23	4.634450711E-3	3.005966078E-5	1.197282142E-4
20.240000000000002	7.098909287E-3	-9.665236036E-5	2.841719730E-4
20.25	9.060740227E-3	-1.185581383E-4	1.020848476E-4
20.26	9.791094139E-3	5.386906429E-5	-2.116062158E-5
20.27	1.020911967E-2	-3.439468330E-4	3.678711763E-4
20.28	9.975011451E-3	-1.071629417E-3	4.933169851E-4
20.29	9.072944264E-3	-1.456295635E-4	1.407475633E-4
20.3	8.780454413E-3	-6.293648787E-4	1.864080736E-4
20.31	7.469768420E-3	-1.218908097E-3	-1.092840449E-4
20.32	5.888630406E-3	-4.859956265E-4	2.196818427E-4
20.330000000000002	4.766670567E-3	-6.496547728E-4	-4.169528329E-4
20.34	3.264418406E-3	-7.149303637E-5	-3.400763111E-5
20.35	7.631408400E-4	-1.259151137E-4	5.496637606E-4
20.36	-1.112799943E-3	-4.653476478E-4	2.351671478E-5
20.37	-2.382184493E-3	-9.540380042E-4	5.401936990E-4
20.38	-2.719295049E-3	-1.465116121E-4	8.996278340E-4
20.39	-3.507642970E-3	1.305379995E-4	1.141006303E-3
20.400000000000002	-4.515199936E-3	-1.791623760E-4	5.523155169E-4
20.41	-4.640382708E-3	-1.848734217E-4	1.852096257E-4
20.42	-4.428048267E-3	5.494333174E-5	6.778803780E-4
20.43	-4.707818061E-3	2.377144269E-4	5.799301130E-4
20.44	-3.152633421E-3	-4.761386617E-4	1.553285599E-3
20.45	-1.077471097E-3	-3.843089864E-4	5.755396911E-4
20.46	3.795874440E-4	1.448937245E-4	5.092743519E-4
20.47	2.052277449E-3	-2.454830747E-4	1.174720673E-3
20.48	3.934283810E-3	-3.174668225E-4	2.897957370E-4
20.490000000000002	4.890000350E-3	-1.416262726E-4	4.769089332E-4
20.5	5.720459338E-3	1.050792107E-4	2.980830878E-4
20.51	6.723883916E-3	1.715920702E-4	-1.404422273E-4
20.52	6.681514834E-3	-4.399377761E-4	8.658409613E-5
20.53	5.554695916E-3	-1.292879298E-3	1.953613633E-4
20.54	4.814675286E-3	-4.874878663E-4	7.371292736E-4
20.55	3.380454827E-3	3.577298318E-4	3.429368740E-4
20.56	2.268028474E-3	-1.044839969E-3	6.893584339E-4
20.57	8.333636988E-4	-8.033624077E-4	4.387743440E-4
20.580000000000002	-1.580837230E-3	-5.318596035E-4	1.102822558E-3
20.59	-3.783817692E-3	-1.013258093E-3	3.142075803E-4
20.6	-6.753616663E-3	-1.144827141E-3	-3.915731408E-4
20.61	-8.420864525E-3	-5.452048474E-4	-2.636871639E-4
20.62	-9.732397551E-3	-1.220614756E-3	4.449486263E-4
20.63	-1.007856859E-2	-1.102226190E-3	5.738505942E-4
20.64	-1.058989257E-2	-1.316494887E-3	-9.513483234E-5
20.650000000000002	-1.062911993E-2	-8.327783765E-4	1.201372308E-4
20.66	-1.035528754E-2	-2.091372707E-4	7.607335004E-4
20.67	-9.503758908E-3	1.073088912E-4	8.756202935E-4
20.68	-7.753645915E-3	7.236546020E-4	9.696747752E-4
20.69	-6.878423950E-3	-2.295354837E-4	3.709757277E-4
20.7	-4.527461308E-3	-2.614339590E-4	-5.281788038E-4
20.71	-2.230915593E-3	-2.761309962E-4	-4.087715724E-4
20.72	-1.275574304E-3	-5.653792455E-4	1.094688131E-3
20.73	5.672405931E-4	-2.550899058E-4	4.939390780E-5
20.740000000000002	1.675987940E-3	5.535923843E-5	-3.763505795E-4
20.75	3.360630568E-3	-9.623099771E-4	6.997800211E-4
20.76	3.620820971E-3	-1.161065872E-3	4.417292656E-4
20.77	3.247861340E-3	-7.030767864E-4	1.173392651E-3
20.78	4.303093158E-3	-8.486067857E-4	-1.777445242E-4
20.79	4.276833929E-3	-3.247587205E-4	-8.646569578E-4
20.8	2.345969002E-3	4.604177031E-5	4.729219947E-5
20.81	8.856581194E-5	4.284425435E-5	3.845804832E-4
20.82	-1.215704574E-3	-1.053358229E-4	-5.294860287E-4
20.830000000000002	-2.005307580E-3	-8.916784724E-4	-5.983214060E-4
20.84	-3.745982590E-3	-2.730990338E-3	9.175621393E-4
20.85	-4.973509604E-3	-1.125690853E-3	-1.300548140E-4
20.86	-6.178557826E-3	-1.777176490E-4	-9.274568708E-4
20.87	-6.650588457E-3	-2.685462231E-4	-6.888295177E-4
20.88	-6.499543341E-3	-1.159647322E-3	-1.939128681E-4
20.89	-6.184997117E-3	-6.627270893E-4	3.749145720E-4
20.900000000000002	-5.754760492E-3	-1.166344505E-4	1.338088850E-3
20.91	-5.648847036E-3	-6.746855422E-4	1.276753761E-3
20.92	-4.545824925E-3	-8.905464049E-4	5.635585219E-4
20.93	-1.569390425E-3	6.242571336E-5	1.326732552E-3
20.94	-3.081902314E-4	-5.677998674E-5	1.057703282E-3
20.95	1.066273249E-3	9.244058531E-4	3.075490683E-4
20.96	4.587804416E-3	2.603665736E-4	4.751531608E-5
20.97	6.610892639E-3	5.049589326E-4	-7.728318455E-4
20.98	7.675147009E-3	2.438613207E-4	5.818302786E-4
20.990000000000002	9.051606007E-3	2.011241413E-4	2.979738541E-4
21.0	9.730786083E-3	2.086638331E-4	-1.131327522E-4
21.01	1.023877932E-2	-2.296268564E-4	-1.015750223E-3
21.02	1.026911544E-2	-1.343024350E-3	-8.678357907E-4
21.03	9.337840476E-3	-7.559764390E-4	-1.396319596E-4
21.04	7.994652809E-3	-2.674416575E-4	7.435006071E-4
21.05	6.658046546E-3	-3.992215201E-4	2.666282556E-4
21.06	5.270957208E-3	-6.961783031E-4	-2.087896154E-5
21.07	3.431289804E-3	-1.016159517E-3	2.343204510E-4
21.080000000000002	1.236577907E-3	-1.002028595E-3	-3.726550460E-4
21.09	-7.540172365E-4	-8.266623717E-4	4.656185836E-5
21.1	-2.525840674E-3	-1.112999712E-3	1.993205864E-4
21.11	-3.899334820E-3	-9.568843807E-4	-8.564333481E-4
21.12	-2.674621630E-3	-1.083508604E-3	-7.677460658E-4
21.13	-4.623388756E-3	7.818275992E-5	-5.539958322E-4
21.14	-4.820141026E-3	-3.508019113E-4	4.439117639E-5
21.150000000000002	-4.270476570E-3	-8.700758710E-4	8.192262574E-5
21.16	-3.185075278E-3	-1.803079655E-3	8.652393778E-4
21.17	-2.842686759E-3	-9.961714881E-4	7.473643276E-4
21.18	-8.816620085E-4	-2.812308929E-4	2.283406300E-4
21.19	-1.418728627E-4	9.084255066E-5	-5.118599699E-4
21.2	9.000972934E-4	2.555963979E-4	-5.402229991E-4
21.21	2.924142936E-3	-2.280455531E-5	3.190199517E-4
21.22	4.242518197E-3	-3.792813923E-4	6.599962661E-4
21.23	4.997252090E-3	-6.328464715E-4	1.909775566E-4
21.240000000000002	6.016093385E-3	-9.591087073E-4	6.166781401E-4
21.25	5.979053242E-3	-3.220854349E-4	8.872984505E-4
21.26	5.157445816E-3	-4.337637356E-4	3.960826946E-4
21.27	3.945799030E-3	-7.679171236E-4	-2.417682825E-4
21.28	3.469012630E-3	-4.178955227E-4	1.518185294E-4
21.29	1.512779332E-3	-7.235066614E-4	8.468853499E-4
21.3	4.517342797E-4	1.884889209E-4	-1.857550912E-4
21.31	-1.255167643E-3	-6.347286206E-4	7.623293700E-4
21.32	-4.628724605E-3	-3.194765087E-4	2.744267484E-5
21.330000000000002	-5.918373171E-3	1.499149929E-4	-2.971518533E-5
21.34	-7.057582957E-3	-5.174697518E-4	-4.303403937E-4
21.35	-8.234813394E-3	-1.113739136E-3	2.969437114E-5
21.36	-9.485667429E-3	-7.981395796E-4	1.258514300E-4
21.37	-1.065829159E-2	-2.611036222E-4	-5.300696999E-4
21.38	-1.102526423E-2	-8.612350571E-4	-6.585006284E-5
21.39	-1.085569001E-2	-1.277442205E-3	-3.319048546E-5
21.400000000000002	-1.012102478E-2	-4.986482605E-4	-1.996039565E-4
21.41	-8.734517084E-3	-9.060987395E-4	-6.280264056E-4
21.42	-7.694406231E-3	1.182531751E-4	-4.267489030E-4
21.43	-5.500624283E-3	2.610997290E-4	-4.400317514E-4
21.44	-3.972568629E-3	-3.864088446E-4	2.381723112E-4
21.45	-1.431745931E-3	-4.582394697E-4	-1.172307129E-4
21.46	1.317879335E-3	-5.805230225E-6	-1.618670912E-4
21.47	2.797305625E-3	-8.880617206E-4	-2.953431897E-4
21.48	3.207755282E-3	-1.848833169E-3	-5.470557022E-4
21.490000000000002	3.467269558E-3	-9.541920834E-4	-5.602441264E-4
21.5	3.934356917E-3	3.822637202E-4	-5.094810455E-4
21.51	3.849692345E-3	5.750994889E-5	-9.378350055E-4
21.52	2.483441279E-3	-5.690894466E-5	-5.418585860E-4
21.53	3.482420695E-3	9.350562398E-5	5.511595369E-5
21.54	9.448002183E-4	-1.887209849E-4	-6.552879466E-4
21.55	-6.610068309E-4	-2.198998825E-4	-8.314412502E-4
21.56	-2.000991583E-3	-2.366506500E-4	1.070636976E-4
21.57	-3.755708327E-3	7.493150853E-5	-3.601395650E-4
21.580000000000002	-5.302350562E-3	-6.508991411E-4	2.559608358E-4
21.59	-6.403403517E-3	-3.006485013E-4	8.029133973E-5
21.6	-5.876623941E-3	1.883754711E-4	-8.605275861E-5
21.61	-5.320550477E-3	4.834627368E-5	-1.423527737E-4
21.62	-6.022156867E-3	2.347820226E-4	-2.573689507E-4
21.63	-5.513772692E-3	7.635837654E-5	3.239030297E-4
21.64	-4.178111098E-3	-8.907990667E-4	8.182901117E-4
21.650000000000002	-3.673821322E-3	-8.945255899E-4	1.148425095E-3
21.66	-1.653209313E-3	-1.443397880E-3	9.152541078E-4
21.67	-6.284534839E-5	-1.128355011E-3	-9.949370967E-4
21.68	1.028842432E-3	-9.618586868E-4	5.224163687E-4
21.69	2.752843623E-3	-6.610855536E-4	-2.299035297E-4
21.7	5.277229205E-3	-7.446774938E-4	-5.321435823E-4
21.71	6.957259029E-3	-3.728093570E-6	2.366596715E-4
21.72	8.601183754E-3	-8.125878845E-4	-1.119910221E-4
21.73	1.055716979E-2	-1.042039611E-4	-6.913523420E-4
21.740000000000002	1.146048023E-2	1.972726165E-5	-2.085596061E-4
21.75	1.074967631E-2	-6.797997640E-4	1.708356570E-4
21.76	9.518136675E-3	-8.386102464E-4	1.510738774E-4
21.77	8.527764246E-3	-3.187218058E-4	2.048241828E-4
21.78	7.526317369E-3	-8.677968552E-4	-8.714996197E-5
21.79	5.073206183E-3	-1.364517144E-3	-2.312456525E-4
21.8	4.166204435E-3	-5.337758928E-4	5.483563101E-4
21.81	1.704381992E-3	-5.499027871E-4	-7.927147353E-4
21.82	3.348306635E-4	-4.499525148E-4	5.525800862E-4
21.830000000000002	-3.188902055E-4	-2.291376071E-4	5.199757909E-4
21.84	-2.209036276E-3	1.650648335E-4	5.025196901E-4
21.85	-3.269797787E-3	-1.429549692E-4	4.091313242E-4
21.86	-3.795559830E-3	-1.062995864E-4	1.557775345E-4
21.87	-4.656370525E-3	5.920959854E-4	-1.831128996E-4
21.88	-4.585364605E-3	2.696731762E-5	-2.304579376E-4
21.89	-3.542805739E-3	-7.012965251E-4	8.577085310E-5
21.900000000000002	-1.773518792E-3	-8.498603943E-4	-1.540337871E-4
21.91	-1.226866452E-3	-1.383902246E-3	7.265936674E-4
21.92	1.067524480E-3	-4.525711063E-4	-3.145729516E-5
21.93	3.103448648E-3	-1.385236114E-3	-2.144168997E-4
21.94	4.204343929E-3	-1.145741236E-3	-3.365549758E-4
21.95	4.733814109E-3	1.725691881E-4	-7.998628667E-4
21.96	6.019247432E-3	-6.351643965E-4	5.473901839E-4
21.97	7.370503078E-3	-5.878744390E-4	-4.851627129E-4
21.98	7.076529474E-3	-5.996670272E-5	-7.461732041E-4
21.990000000000002	5.760027492E-3	-1.154995409E-3	1.147944403E-4
22.0	4.562187141E-3	-1.235026984E-3	1.080452884E-3
22.01	3.848115014E-3	-8.853374631E-4	-5.842856185E-5
22.02	2.032608247E-3	-3.173245632E-4	-1.027079883E-3
22.03	-5.768180316E-5	-2.126793709E-5	-7.973533569E-4
22.04	-1.560593285E-3	-2.878028807E-4	-3.463195400E-5
22.05	-3.586566212E-3	-7.122765086E-5	2.002134188E-4
22.06	-6.088873004E-3	-8.211215397E-4	-1.420715637E-3
22.07	-6.474105666E-3	-8.184149713E-6	-3.537160925E-4
22.080000000000002	-9.957658637E-3	-7.865201523E-4	-8.695953898E-4
22.09	-9.717153572E-3	-6.297766044E-4	5.440222342E-4
22.1	-8.930078569E-3	-8.814132779E-4	8.882458365E-4
22.11	-9.225206944E-3	-7.741666396E-4	2.489064159E-4
22.12	-9.165317997E-3	-8.162120535E-5	2.725706088E-4
22.13	-8.985341785E-3	2.000450387E-4	3.408254227E-4
22.14	-8.181191341E-3	-1.579213424E-5	-8.342568492E-4
22.150000000000002	-7.081163588E-3	-3.510800838E-4	-8.774978795E-4
22.16	-5.076485880E-3	1.284672926E-4	-2.578276053E-4
22.17	-2.700087400E-3	1.298265601E-4	-4.938586534E-4
22.18	-8.691860672E-4	-3.154073469E-4	-4.252002537E-4
22.19	-3.735647663E-5	-2.991495042E-4	-1.930106079E-5
22.2	5.881845812E-4	-1.882712591E-4	-2.863904667E-4
22.21	2.718985818E-3	-6.258823056E-4	9.988710495E-5
22.22	3.938088719E-3	-3.196578187E-4	6.799170352E-5
22.23	3.549148982E-3	2.869153980E-5	-5.013287476E-4
22.240000000000002	4.271704529E-3	-1.800227448E-4	-2.840402979E-4
22.25	2.732590404E-3	-4.605466959E-4	-1.383535587E-3
22.26	2.848976598E-3	-1.251572984E-4	-1.337542893E-4
22.27	1.772683387E-3	7.298954798E-4	3.235398119E-4
22.28	-9.139230351E-4	6.867342142E-4	-8.587629030E-4
22.29	-2.833448027E-3	6.471278557E-5	-6.769152021E-4
22.3	-3.631244669E-3	-7.269506993E-4	-5.723654005E-4
