Time (s)	Acceleration x (m/s^2)	Acceleration y (m/s^2)	Acceleration z (m/s^2)
0.0	9.989574161E-4	5.424948670E-3	-4.192411091E-3
0.01	-6.947206801E-5	3.394528960E-3	-4.716521666E-3
0.02	-6.411455947E-4	3.276706703E-4	-5.474226745E-3
0.03	9.963598402E-5	-4.529268521E-4	-5.027637891E-3
0.04	1.027733307E-3	7.508732115E-5	-4.000674527E-3
0.05	3.260621320E-3	4.207502224E-4	-3.555493871E-3
0.06	3.652854977E-3	5.200500972E-5	-4.052415734E-3
0.07	1.909679976E-3	-1.351213581E-3	-4.775949056E-3
0.08	-3.669273943E-5	-2.265421698E-3	-4.357202289E-3
0.09	-5.322828197E-4	-6.774138014E-4	-3.563540112E-3
0.1	1.020219578E-3	2.617064376E-3	-4.228396136E-3
0.11	2.701037283E-3	6.675175454E-3	-3.452716117E-3
0.12	2.180734983E-3	7.487792783E-3	-4.431878712E-3
0.13	2.772604611E-3	7.513596315E-3	-4.733400883E-3
0.14	2.016058726E-3	5.617218929E-3	-3.789399274E-3
0.15	9.618998565E-4	8.805796439E-4	-3.921679373E-3
0.16	3.564798827E-4	-2.173191133E-3	-3.613437902E-3
0.17	2.536763089E-4	-2.998767575E-3	-3.517187094E-3
0.18	8.321949241E-4	-2.667132108E-3	-4.230712052E-3
0.19	2.027064246E-3	-5.379113741E-4	-4.200289841E-3
0.2	2.204129182E-3	1.180641490E-3	-3.616669615E-3
0.21	1.563441394E-3	1.059923005E-3	-4.015272390E-3
0.22	1.180428214E-3	2.045663782E-3	-3.585398458E-3
0.23	2.559521919E-4	3.626736336E-3	-4.049989547E-3
0.24	8.668680803E-4	3.639415232E-3	-4.343849986E-3
0.25	8.903696033E-4	4.915555556E-3	-4.285901231E-3
0.26	2.306450039E-3	5.443474080E-3	-4.569758015E-3
0.27	1.473966947E-3	4.151233174E-3	-5.116521504E-3
0.28	1.894081105E-3	-1.330415301E-3	-3.502193482E-3
0.29	1.060064328E-2	-7.597807577E-3	-4.589511801E-3
0.3	4.226924979E-2	-1.100477284E-2	-3.102265856E-3
0.31	1.292460174E-1	-2.935793443E-2	-7.473215281E-4
0.32	2.005765476E-1	-1.469737536E-2	-1.109588991E-3
0.33	2.253804951E-1	9.116125155E-3	1.966458262E-3
0.34	3.569358470E-1	1.836619779E-2	1.199664049E-2
0.35000000000000003	4.948482508E-1	1.593758699E-2	1.964827312E-2
0.36	4.615940356E-1	3.393412416E-2	1.723997223E-2
0.37	3.431600485E-1	6.926303716E-2	8.110732975E-3
0.38	2.858061722E-1	-3.781064527E-3	-7.421789704E-3
0.39	2.139631678E-1	-2.559934708E-2	-1.523051445E-2
0.4	1.524497588E-1	-5.760471228E-2	-7.398647828E-3
0.41000000000000003	1.922553243E-2	4.309472777E-2	-6.257169585E-3
0.42	-4.602332494E-2	5.902946204E-2	4.601244815E-3
0.43	-1.003250118E-1	1.064123890E-1	4.172001720E-3
0.44	-2.772516259E-2	1.858357540E-3	9.149376345E-3
0.45	1.622955904E-2	-4.143899521E-2	-1.533057312E-3
0.46	6.316038555E-2	-8.514178478E-2	-7.725035886E-3
0.47000000000000003	4.069944411E-2	-3.062850151E-2	-1.564072257E-2
0.48	3.325433678E-2	-2.569303305E-3	-1.847543298E-2
0.49	3.014839648E-2	9.095791527E-3	-2.252824852E-2
0.5	2.849813299E-2	1.784701853E-2	-2.344339904E-2
0.51	3.004176304E-2	1.678980844E-2	-2.219457072E-2
0.52	3.129659585E-2	3.445717941E-4	-2.663434197E-2
0.53	4.089179301E-2	-2.388195277E-2	-2.589035298E-2
0.54	2.381781834E-2	-2.831647617E-3	-2.532745507E-2
0.55	1.716157306E-2	1.954262464E-3	-1.952579935E-2
0.56	-2.550852111E-2	4.660230735E-2	-1.392429865E-2
0.5700000000000001	-5.484575646E-2	4.606794972E-2	-1.964698488E-3
0.58	-3.003202881E-2	8.995148551E-3	4.571853733E-3
0.59	8.975479713E-3	-4.562709119E-2	1.221269450E-2
0.6	-1.583304859E-2	-4.577304438E-2	3.162853834E-3
0.61	-7.560237389E-2	-1.707926223E-2	-4.649414929E-3
0.62	-1.370332324E-1	8.450513874E-3	-3.999470308E-3
0.63	-1.898895849E-1	2.171405452E-2	-3.824187800E-3
0.64	-2.137943282E-1	-6.628353443E-3	-2.216871121E-3
0.65	-2.502207599E-1	-2.522227844E-2	5.478183113E-3
0.66	-3.161081515E-1	-1.955007138E-2	1.182118451E-2
0.67	-3.972932283E-1	6.569213406E-3	1.613838891E-2
0.68	-4.654109097E-1	3.322783650E-2	1.993331590E-2
0.6900000000000001	-4.963689726E-1	2.188512873E-2	2.023498485E-2
0.7000000000000001	-5.131144620E-1	-9.077192428E-4	1.675777606E-2
0.71	-5.073093361E-1	-3.866279414E-2	1.777020572E-2
0.72	-5.247368682E-1	-1.550497325E-2	1.770378224E-2
0.73	-4.998112326E-1	-1.964472573E-2	1.427976535E-2
0.74	-4.824871011E-1	3.903194405E-3	1.051572642E-2
0.75	-3.942872490E-1	-7.927746643E-3	5.124301229E-3
0.76	-3.127151476E-1	8.998620836E-3	1.224752399E-3
0.77	-2.132926497E-1	-4.154223288E-3	-1.436224587E-3
0.78	-1.314061589E-1	1.200590525E-2	-5.603230198E-3
0.79	-2.470059042E-2	-4.768260988E-3	-1.453070749E-3
0.8	5.755119658E-2	-4.683117958E-3	3.675746217E-4
0.81	1.057623297E-1	1.338762682E-2	1.341004243E-3
0.8200000000000001	1.211569921E-1	3.038435749E-2	5.947325435E-4
0.8300000000000001	1.083277969E-1	3.076095178E-2	-4.081938162E-3
0.84	1.000537334E-1	7.517008602E-3	-1.117183455E-2
0.85	8.049115332E-2	-2.091622622E-2	-1.835746932E-2
0.86	4.103549132E-2	-4.115403138E-2	-1.980298360E-2
0.87	-4.037124361E-2	-2.026877122E-2	-2.321690700E-2
0.88	-1.411520841E-1	2.910327301E-2	-2.234036926E-2
0.89	-1.794725401E-1	3.487940407E-2	-1.945753811E-2
0.9	-1.695084545E-1	2.037238947E-2	-1.643131033E-2
0.91	-1.169863411E-1	-2.525052216E-2	-1.516548314E-2
0.92	-8.165611934E-2	-2.703722824E-2	-1.336774890E-2
0.93	-5.205314010E-2	-6.754289301E-3	-1.121613246E-2
0.9400000000000001	-1.272098103E-2	2.670112318E-2	-4.860773676E-3
0.9500000000000001	5.787465614E-2	2.185126788E-2	5.183180311E-4
0.96	1.284830155E-1	2.447251291E-3	2.945030812E-3
0.97	1.848118765E-1	-2.050686794E-2	3.371512948E-3
0.98	2.108629497E-1	-2.064173179E-2	8.017794585E-5
0.99	2.236573820E-1	-8.044492479E-3	-4.102983759E-3
1.0	2.405512865E-1	-2.766996956E-3	-5.896600621E-3
1.01	2.548941151E-1	2.100931159E-3	-5.396900147E-3
1.02	2.788323188E-1	-3.096601848E-3	-5.143812589E-4
1.03	2.923200072E-1	1.460095450E-2	4.173899609E-3
1.04	3.245675588E-1	2.008915511E-2	1.066517190E-2
1.05	3.724258433E-1	2.406941289E-2	1.319501742E-2
1.06	4.351703510E-1	3.819859241E-3	1.573412268E-2
1.07	4.711141454E-1	6.312244123E-3	1.164239172E-2
1.08	4.891374163E-1	1.589431342E-2	9.123266552E-3
1.09	4.812028062E-1	3.650653595E-2	4.351186367E-3
1.1	4.762818038E-1	2.350256932E-2	3.005316934E-3
1.11	4.585012949E-1	-1.081184400E-2	5.321102790E-4
1.12	4.126759606E-1	-3.194431495E-2	1.244032548E-3
1.1300000000000001	3.291268482E-1	-2.321468583E-2	7.504082233E-4
1.1400000000000001	2.240685408E-1	5.352996666E-3	-7.835524976E-4
1.1500000000000001	1.235576544E-1	2.280998666E-2	-1.979317999E-3
1.16	4.637318610E-2	1.449986551E-2	-1.831118694E-3
1.17	-1.072042171E-3	-1.301614234E-2	4.188485932E-4
1.18	-4.367920546E-2	-2.618416955E-2	2.075753885E-3
1.19	-9.468705454E-2	6.308033784E-4	1.955009831E-3
1.2	-1.272137998E-1	2.572379264E-2	-9.476122695E-4
1.21	-1.274820616E-1	3.345721218E-2	-4.682561975E-3
1.22	-8.843518062E-2	8.016580477E-3	-1.149791707E-2
1.23	-3.405311186E-2	-1.781413045E-2	-1.982360997E-2
1.24	1.127006553E-2	-1.868339056E-2	-2.506174467E-2
1.25	3.743896003E-2	-4.425358263E-3	-2.663519861E-2
1.26	6.808847759E-2	2.620025152E-3	-2.405964975E-2
1.27	1.029464984E-1	5.531362311E-3	-1.753359003E-2
1.28	1.327710893E-1	1.928331752E-3	-1.097519124E-2
1.29	1.376639774E-1	5.401200302E-3	-8.144173211E-3
1.3	1.143733754E-1	1.030948799E-2	-6.075489888E-3
1.31	8.024235931E-2	9.344185872E-3	-3.987811194E-3
1.32	4.062993204E-2	2.852735611E-3	-2.970500524E-3
1.33	-1.312027380E-2	1.959600881E-4	-6.138757527E-4
1.34	-9.419081442E-2	6.655175873E-3	2.391512723E-3
1.35	-1.912172046E-1	1.525783241E-2	3.915786433E-3
1.36	-2.716984350E-1	1.718498445E-2	3.526405343E-3
1.37	-3.281680985E-1	-2.040013768E-3	3.619374891E-3
1.3800000000000001	-3.633514268E-1	-2.729616225E-2	3.174051816E-3
1.3900000000000001	-4.031761691E-1	-2.549149607E-2	4.511833653E-3
1.4000000000000001	-4.414250951E-1	-7.924784481E-3	1.021173146E-2
1.41	-4.610340157E-1	1.253854145E-2	1.551746426E-2
1.42	-4.476915918E-1	1.125467055E-2	2.057951633E-2
1.43	-4.063839642E-1	-9.431118331E-3	2.261122941E-2
1.44	-3.686657743E-1	-2.331084977E-2	2.269674228E-2
1.45	-3.548317156E-1	-1.402964753E-2	2.021585522E-2
1.46	-3.564136822E-1	6.886674792E-3	1.550423255E-2
1.47	-3.483646743E-1	1.633054096E-2	9.869661515E-3
1.48	-3.266346541E-1	8.553215394E-3	4.676341748E-3
1.49	-2.993981750E-1	-9.330847065E-3	1.763537180E-3
1.5	-2.772666770E-1	-1.797313324E-2	2.029947468E-3
1.51	-2.596736816E-1	-5.612427552E-3	6.058292018E-3
1.52	-2.285716373E-1	8.242309130E-3	8.194033810E-3
1.53	-1.728130128E-1	6.769100971E-3	7.676546900E-3
1.54	-1.000343632E-1	-7.152826381E-4	4.930549664E-3
1.55	-2.624705810E-2	-4.337648414E-3	6.812461355E-4
1.56	3.432926044E-2	6.681285599E-3	-3.906146700E-3
1.57	8.505096621E-2	1.139725385E-2	-7.533416529E-3
1.58	1.241294916E-1	8.626407519E-3	-1.049629957E-2
1.59	1.471233957E-1	-2.653197132E-3	-1.327939967E-2
1.6	1.315805369E-1	-1.775673093E-3	-1.610958401E-2
1.61	8.809891755E-2	6.996437281E-3	-2.009960894E-2
1.62	2.439901233E-2	1.315571055E-2	-2.321893573E-2
1.6300000000000001	-3.747935497E-2	6.947718544E-3	-2.349927116E-2
1.6400000000000001	-8.390375922E-2	-1.110797076E-2	-1.874940885E-2
1.6500000000000001	-1.215576377E-1	-2.107240211E-2	-1.070999317E-2
1.6600000000000001	-1.551364381E-1	-1.005785913E-2	-4.250082356E-3
1.67	-1.762304272E-1	1.356094753E-2	-8.536690115E-5
1.68	-1.514186061E-1	1.898715575E-2	1.742776450E-3
1.69	-8.288529460E-2	2.947564559E-3	1.756430286E-3
1.7	1.731598961E-2	-1.788470566E-2	1.157343684E-3
1.71	1.022147722E-1	-1.767750239E-2	-1.696674023E-3
1.72	1.759576372E-1	3.399453945E-3	-3.715478565E-3
1.73	2.501461436E-1	1.961216444E-2	-5.149134182E-3
1.74	3.305124195E-1	1.445566864E-2	-2.346547552E-3
1.75	4.063857419E-1	-2.204508008E-3	1.180963092E-3
1.76	4.554548308E-1	-8.728795688E-3	4.965737848E-3
1.77	4.693297847E-1	1.000646037E-3	7.852205797E-3
1.78	4.638736132E-1	1.511022407E-2	8.601203493E-3
1.79	4.566020778E-1	1.787557992E-2	1.043849744E-2
1.8	4.483328499E-1	1.056270414E-2	1.306751271E-2
1.81	4.284767105E-1	3.769468225E-3	1.387795423E-2
1.82	3.943596524E-1	6.645210201E-3	1.284940214E-2
1.83	3.471210647E-1	2.040385833E-2	1.059195648E-2
1.84	3.118938984E-1	1.854188880E-2	7.763780499E-3
1.85	2.824304236E-1	5.403159573E-3	4.064061866E-3
1.86	2.530440220E-1	-7.015975265E-3	-6.193640092E-4
1.87	2.079518370E-1	-2.801529430E-3	-3.809320118E-3
1.8800000000000001	1.580267515E-1	1.061310626E-2	-1.573238123E-3
1.8900000000000001	1.214253658E-1	1.148820544E-2	1.569113520E-3
1.9000000000000001	1.018498385E-1	-5.135601196E-3	5.805494281E-3
1.9100000000000001	8.324580001E-2	-1.857144136E-2	7.928142758E-3
1.92	5.690231599E-2	-1.515833859E-2	5.965940138E-3
1.93	2.301021985E-2	2.728686345E-3	1.303095268E-3
1.94	-3.121094673E-3	1.425877174E-2	-5.481870940E-3
1.95	-1.397748351E-2	9.715628269E-3	-1.252124168E-2
1.96	-1.227256908E-2	-5.388512904E-3	-1.669621474E-2
1.97	-1.330636593E-2	-1.128583518E-2	-1.788541479E-2
1.98	-2.677271228E-2	4.328981680E-3	-1.813429662E-2
1.99	-3.794402758E-2	1.943556473E-2	-1.770723243E-2
2.0	-3.194350898E-2	2.109503989E-2	-1.604369884E-2
2.0100000000000002	-4.469763634E-3	5.911597958E-3	-1.303222952E-2
2.02	2.998395458E-2	-8.798134092E-3	-1.042854585E-2
2.0300000000000002	4.849664756E-2	-3.274676882E-3	-7.678288746E-3
2.04	5.327491086E-2	7.117170356E-3	-3.947221424E-3
2.05	5.709707074E-2	1.054582062E-2	-1.763574576E-3
2.06	6.007903436E-2	3.794145548E-3	5.941560829E-5
2.07	4.520542298E-2	-3.216277392E-3	9.634043282E-4
2.08	3.808808116E-3	-4.120097356E-3	1.098501616E-3
2.09	-7.212389262E-2	2.051505228E-3	7.505026608E-5
2.1	-1.632398018E-1	6.077036388E-3	-1.021747255E-4
2.11	-2.531125630E-1	4.576299949E-4	1.784173079E-3
2.12	-3.377892520E-1	-7.513655797E-3	4.903131020E-3
2.13	-4.238679676E-1	-7.134201781E-3	1.041960740E-2
2.14	-5.070017496E-1	8.670722710E-4	1.700745124E-2
2.15	-5.589376881E-1	5.665431837E-3	2.221463309E-2
2.16	-5.730402457E-1	-7.915702327E-4	2.445303610E-2
2.17	-5.396879805E-1	-1.890560078E-2	2.307255476E-2
2.18	-4.941921372E-1	-1.850760400E-2	1.931548419E-2
2.19	-4.405901590E-1	-5.501702004E-3	1.623655982E-2
2.2	-3.756607109E-1	6.436593372E-3	1.327181533E-2
2.21	-2.937400986E-1	4.819788882E-3	1.050230814E-2
2.22	-2.080155374E-1	-5.926584209E-3	7.911231370E-3
2.23	-1.390956454E-1	-1.231060832E-2	5.655367116E-3
2.24	-9.528446703E-2	-5.279235129E-3	3.826384465E-3
2.25	-8.223005235E-2	1.082370724E-2	2.222577183E-3
2.2600000000000002	-7.704992842E-2	1.705999366E-2	2.142545246E-3
2.27	-6.655599228E-2	7.267649289E-3	3.708599792E-3
2.2800000000000002	-5.409012690E-2	-7.101285751E-3	4.633872479E-3
2.29	-5.505505283E-2	-1.111707028E-2	4.110754345E-3
2.3000000000000003	-6.495233239E-2	6.985499993E-4	2.135081511E-3
2.31	-6.692087265E-2	1.178930371E-2	-2.845895554E-3
2.32	-5.112508170E-2	8.548184983E-3	-1.006612283E-2
2.33	-2.460179337E-2	-2.251401072E-4	-1.591599665E-2
2.34	-5.903981530E-3	-2.714477872E-3	-1.878591359E-2
2.35	1.188890838E-3	2.158517706E-3	-2.164426567E-2
2.36	8.301158724E-4	7.977654526E-3	-2.148773261E-2
2.37	1.241483227E-3	7.019916543E-3	-1.751560906E-2
2.38	3.258514808E-3	-1.320677150E-3	-1.081284804E-2
2.39	-1.007910256E-3	-6.248116619E-3	-4.977574807E-3
2.4	-1.544742370E-2	-2.545335630E-3	-2.029909785E-3
2.41	-3.069616065E-2	4.268612744E-3	-3.716023698E-4
2.42	-2.670326217E-2	2.633154448E-3	-5.926625884E-4
2.43	-2.216466777E-3	-7.182492503E-3	-1.926830058E-3
2.44	3.318242321E-2	-1.445542689E-2	-1.791152226E-3
2.45	6.654370508E-2	-6.847959612E-3	-1.126167229E-3
2.46	1.085932779E-1	1.034601386E-2	3.358381996E-6
2.47	1.660167374E-1	1.543318311E-2	1.149740524E-3
2.48	2.405725157E-1	6.966204343E-3	2.159805432E-3
2.49	3.182493596E-1	-2.345015007E-3	3.533493914E-3
2.5	3.815436229E-1	1.228979434E-3	5.251029819E-3
2.5100000000000002	4.249757390E-1	1.616835844E-2	7.578745790E-3
2.52	4.584025247E-1	2.591854016E-2	1.008485306E-2
2.5300000000000002	4.921319376E-1	1.875754726E-2	1.331955370E-2
2.54	5.172178936E-1	4.110008502E-3	1.578223442E-2
2.5500000000000003	5.129469810E-1	-3.393105075E-3	1.492051974E-2
2.56	4.799738861E-1	9.636044123E-4	1.118592856E-2
2.57	4.228098204E-1	1.273382414E-2	5.657727984E-3
2.58	3.635541261E-1	1.351454609E-2	3.000176674E-3
2.59	2.993966368E-1	1.010702139E-3	1.524538842E-3
2.6	2.292497878E-1	-1.060454398E-2	2.273855801E-3
2.61	1.477922491E-1	-6.091161929E-3	3.901899669E-3
2.62	6.478536858E-2	8.460443386E-3	5.375945606E-3
2.63	1.335695380E-3	1.243666711E-2	6.697412773E-3
2.64	-3.122932310E-2	4.033733972E-3	6.666391661E-3
2.65	-4.313442768E-2	-4.648877999E-3	4.421085204E-3
2.66	-4.271290322E-2	-2.646229513E-3	1.102741706E-3
2.67	-3.208643711E-2	3.454124770E-3	-2.677814534E-3
2.68	-3.471947194E-3	4.292586973E-3	-6.974038225E-3
2.69	3.853279639E-2	-2.435021697E-3	-1.102599018E-2
2.7	8.219042213E-2	-1.008344997E-2	-1.442681514E-2
2.71	1.089643923E-1	-7.451007151E-3	-1.671964906E-2
2.72	1.150604956E-1	3.581359789E-3	-1.778949117E-2
2.73	1.088446715E-1	1.387314754E-2	-1.917919091E-2
2.74	9.501839578E-2	1.029389756E-2	-1.881764641E-2
2.75	7.551383904E-2	-4.487080185E-4	-1.383100357E-2
2.7600000000000002	4.293130337E-2	-2.751849227E-4	-7.674850670E-3
2.77	-5.821074234E-3	8.868191255E-3	-2.286677226E-3
2.7800000000000002	-5.263594765E-2	1.720059019E-2	2.133119915E-3
2.79	-8.505492340E-2	1.374694257E-2	3.221651086E-3
2.8000000000000003	-1.005647159E-1	6.463937649E-4	2.574486846E-3
2.81	-1.128211192E-1	-8.764513951E-3	-2.129229355E-4
2.82	-1.348567437E-1	-7.203433774E-3	-1.949953855E-3
2.83	-1.634204045E-1	3.195311584E-4	-1.616695900E-3
2.84	-1.897883361E-1	3.097336524E-3	1.639895923E-3
2.85	-2.166091030E-1	-3.717848514E-3	6.693858986E-3
2.86	-2.496904316E-1	-1.166952390E-2	1.102963714E-2
2.87	-2.997570307E-1	-1.017186325E-2	1.408945952E-2
2.88	-3.643533394E-1	-1.742140357E-3	1.736643797E-2
2.89	-4.269804102E-1	5.596308696E-3	2.068515717E-2
2.9	-4.664306112E-1	2.720457949E-3	1.935790858E-2
2.91	-4.862549913E-1	-7.415509942E-3	1.936601876E-2
2.92	-4.945226935E-1	-1.005005258E-2	1.989908771E-2
2.93	-4.856091214E-1	-2.698674306E-3	1.726896459E-2
2.94	-4.548998081E-1	2.249759062E-3	1.500630632E-2
2.95	-3.924562660E-1	-2.234985390E-3	1.195617752E-2
2.96	-3.095679738E-1	-9.126258843E-3	7.850882482E-3
2.97	-2.227690530E-1	-9.723883443E-3	5.062404896E-3
2.98	-1.493655215E-1	-1.729066991E-3	4.866358189E-3
2.99	-8.437567221E-2	7.800293880E-3	5.354978500E-3
3.0	-2.244300957E-2	1.042249494E-2	5.345253167E-3
3.0100000000000002	2.758196335E-2	4.063810471E-3	5.917330386E-3
3.02	6.509240288E-2	-4.505725691E-3	5.141069754E-3
3.0300000000000002	6.702087213E-2	9.994778559E-4	2.231109721E-3
3.04	4.504077125E-2	9.329824017E-3	-2.714498560E-3
3.0500000000000003	1.881660741E-2	1.394064508E-2	-8.045159962E-3
3.06	-4.752542696E-3	5.219841961E-3	-1.383318116E-2
3.0700000000000003	-2.750522719E-2	-7.223037239E-3	-1.613427471E-2
3.08	-5.863120423E-2	-7.729623146E-3	-1.723785912E-2
3.09	-9.362793294E-2	-2.421913579E-4	-1.598974232E-2
3.1	-1.193560785E-1	7.497021818E-3	-1.355658445E-2
3.11	-1.230673226E-1	5.578308848E-3	-1.082650415E-2
3.12	-1.081555020E-1	-2.090597227E-3	-8.582270472E-3
3.13	-8.685971289E-2	-6.330459711E-3	-6.736459944E-3
3.14	-6.186346602E-2	-1.277054837E-3	-4.039492394E-3
3.15	-2.794236041E-2	7.267592527E-3	-9.065998921E-4
3.16	2.444196094E-2	6.036891664E-3	1.565206054E-4
3.17	8.493513027E-2	-2.879925826E-3	1.302951222E-3
3.18	1.459052867E-1	-8.176517016E-3	8.172627847E-4
3.19	2.010382872E-1	-4.990700406E-3	-7.004698375E-5
3.2	2.416880659E-1	5.024637915E-3	-2.981816914E-3
3.21	2.865225859E-1	6.650263295E-3	-1.822301562E-3
3.22	3.277514239E-1	1.237273191E-3	-1.934970554E-4
3.23	3.571274850E-1	-3.273290259E-3	4.324155017E-3
3.24	3.691931965E-1	3.988986751E-3	8.799815287E-3
3.25	3.696036934E-1	1.605338115E-2	1.320419028E-2
3.2600000000000002	3.703679872E-1	2.197797636E-2	1.576346388E-2
3.27	3.781215598E-1	1.585213327E-2	1.553938720E-2
3.2800000000000002	3.870018032E-1	6.575336790E-3	1.364455081E-2
3.29	3.868237149E-1	4.976928474E-3	1.043534214E-2
3.3000000000000003	3.759860246E-1	1.119876336E-2	6.571426800E-3
3.31	3.620558441E-1	1.405771581E-2	4.196022630E-3
3.3200000000000003	3.487625411E-1	7.608823419E-3	3.941108416E-3
3.33	3.295345354E-1	-5.568872409E-3	3.878874663E-3
3.34	2.947410927E-1	-1.324089741E-2	5.789791250E-3
3.35	2.374447920E-1	-8.481998444E-3	5.938524657E-3
3.36	1.637158629E-1	3.384354768E-3	6.056755843E-3
3.37	9.817768853E-2	8.212756626E-3	4.282129619E-3
3.38	3.845772708E-2	-1.510353801E-3	3.686231875E-3
3.39	-1.445758306E-2	-6.893787491E-3	3.775749162E-3
3.4	-6.065516107E-2	-9.604118634E-4	1.861659495E-3
3.41	-9.434101548E-2	8.763638895E-3	-2.343964054E-3
3.42	-9.921144339E-2	1.227123914E-2	-6.310539369E-3
3.43	-7.463621946E-2	6.375680480E-3	-1.071685028E-2
3.44	-2.956028402E-2	-1.004817523E-3	-1.530225591E-2
3.45	2.042988593E-2	-2.574323749E-3	-1.842669870E-2
3.46	6.622136010E-2	2.669980112E-3	-1.871701822E-2
3.47	1.097481966E-1	6.547926068E-3	-1.627143835E-2
3.48	1.476507641E-1	3.377050550E-3	-1.157782582E-2
3.49	1.664112053E-1	-3.321037363E-3	-7.873705445E-3
3.5	1.578189662E-1	-2.908966491E-3	-3.998405035E-3
3.5100000000000002	1.183813029E-1	5.350308415E-3	-3.266189985E-3
3.52	6.022384684E-2	1.094118914E-2	-3.172456410E-3
3.5300000000000002	-7.375884384E-3	8.984955446E-3	-1.691183577E-3
3.54	-7.763709679E-2	1.152495768E-3	2.718612000E-4
3.5500000000000003	-1.487130671E-1	-2.618097623E-3	6.424530645E-4
3.56	-2.213539748E-1	1.573925382E-3	2.223539805E-3
3.5700000000000003	-2.879129857E-1	7.054149127E-3	5.195507191E-3
3.58	-3.360727585E-1	4.213105532E-3	6.788280615E-3
3.59	-3.613053179E-1	-5.908295132E-3	7.932733887E-3
3.6	-3.767746840E-1	-1.359793326E-2	1.057404244E-2
3.61	-3.898952124E-1	-1.188366297E-2	1.484808056E-2
3.62	-4.001842348E-1	-4.535604125E-3	1.808934023E-2
3.63	-3.994839147E-1	-8.529913171E-4	1.996944035E-2
3.64	-3.863712193E-1	-4.071791371E-3	2.154859509E-2
3.65	-3.680953424E-1	-1.068470859E-2	2.045455313E-2
3.66	-3.532766019E-1	-8.442368491E-3	1.812588306E-2
3.67	-3.437069327E-1	6.101761614E-4	1.376127611E-2
3.68	-3.269448236E-1	8.195886467E-3	1.049581239E-2
3.69	-2.959443041E-1	5.277465545E-3	6.170690868E-3
3.7	-2.552488283E-1	-3.453013746E-3	5.435233728E-3
3.71	-2.174085056E-1	-6.351649942E-3	6.276300756E-3
3.72	-1.828805333E-1	-1.619275276E-3	8.865482489E-3
3.73	-1.476301594E-1	4.630179418E-3	1.156089922E-2
3.74	-1.082960148E-1	4.607087664E-3	1.112719378E-2
3.75	-6.667881496E-2	-7.931789043E-4	8.239673555E-3
3.7600000000000002	-3.200469140E-2	-2.801515917E-3	2.784596834E-3
3.77	-8.398021504E-3	1.282175117E-3	-2.976495719E-3
3.7800000000000002	5.517441315E-3	8.324493955E-3	-6.715993186E-3
3.79	1.792162694E-2	1.073751925E-2	-9.732953532E-3
3.8000000000000003	2.706316926E-2	4.664335853E-3	-1.255151658E-2
3.81	2.762744171E-2	-1.820958444E-3	-1.659595560E-2
3.8200000000000003	1.279699823E-2	-2.105912464E-3	-1.754214101E-2
3.83	-1.171991275E-2	3.672424471E-3	-1.414753497E-2
3.84	-3.832436878E-2	5.381852649E-3	-1.399332204E-2
3.85	-5.858017955E-2	-4.441119495E-4	-1.134843862E-2
3.86	-7.478908660E-2	-8.131428647E-3	-6.897673101E-3
3.87	-8.693415773E-2	-9.373846223E-3	-2.525398225E-3
3.88	-9.593707042E-2	-1.774791348E-3	2.639780062E-4
3.89	-8.410350624E-2	4.929269840E-3	6.204584433E-4
3.9	-5.080448443E-2	4.422591713E-3	-6.282541866E-4
3.91	6.465372549E-3	-1.319648092E-3	-1.926635682E-3
3.92	7.672838449E-2	-3.688702300E-3	-3.661026147E-3
3.93	1.526483655E-1	2.523352611E-3	-5.357382165E-3
3.94	2.298448386E-1	1.021760740E-2	-3.872412982E-3
3.95	3.107545613E-1	1.018375946E-2	-7.618228558E-4
3.96	3.900770663E-1	3.911859040E-3	2.214803396E-3
3.97	4.468910158E-1	-3.179166363E-4	6.217112378E-3
3.98	4.813562161E-1	1.583328338E-3	8.659785986E-3
3.99	4.841552967E-1	1.169078949E-2	1.020469387E-2
4.0	4.689393787E-1	1.337555223E-2	1.046171806E-2
4.01	4.422052912E-1	8.793111406E-3	1.113914332E-2
4.0200000000000005	3.997092342E-1	3.482412590E-3	1.019081394E-2
4.03	3.466985761E-1	5.011051630E-3	9.577953787E-3
4.04	2.860452141E-1	1.251328926E-2	8.185199939E-3
4.05	2.333367828E-1	1.453964902E-2	5.681500875E-3
4.0600000000000005	1.975532495E-1	8.349446139E-3	4.139043110E-3
4.07	1.755628564E-1	-2.765449499E-5	3.386284929E-3
4.08	1.562471951E-1	-2.526078980E-3	3.205511934E-3
4.09	1.374076078E-1	8.074227827E-4	3.344132612E-3
4.1	1.230491931E-1	4.648330899E-3	4.422541736E-3
4.11	1.128791269E-1	2.372965219E-3	6.413281104E-3
4.12	1.048092316E-1	-7.461469273E-3	5.218234888E-3
4.13	9.099905763E-2	-9.997080883E-3	2.788810006E-3
4.14	6.601608889E-2	-5.180729504E-3	-1.134567545E-3
4.15	3.508227704E-2	3.896151044E-3	-6.680391240E-3
4.16	1.091222911E-2	6.815517084E-3	-1.265510107E-2
4.17	6.905183378E-4	7.879491613E-4	-1.676778831E-2
4.18	-3.950530884E-3	-1.616692325E-3	-1.759557161E-2
4.19	-5.050980094E-3	3.229134650E-3	-1.766607169E-2
4.2	-3.396225792E-3	1.135895875E-2	-1.608019412E-2
4.21	1.087709347E-2	1.208572670E-2	-1.280618790E-2
4.22	3.248043717E-2	7.104595246E-3	-1.043490715E-2
4.23	5.290317563E-2	1.824447403E-3	-7.820304895E-3
4.24	6.379359565E-2	8.217755545E-4	-5.623016594E-3
4.25	5.885864840E-2	4.437885274E-3	-4.600786269E-3
4.26	4.137551102E-2	6.080345518E-3	-3.598433632E-3
4.2700000000000005	1.357724123E-2	1.647299632E-3	-3.116903221E-3
4.28	-2.376656744E-2	-5.319615243E-3	-2.154908065E-3
4.29	-7.625993682E-2	-6.981857054E-3	-9.732213183E-4
4.3	-1.482772223E-1	-3.728847437E-5	6.283020338E-4
4.3100000000000005	-2.187705703E-1	5.889423452E-3	1.847780559E-3
4.32	-2.857865026E-1	3.704182860E-3	6.412529120E-3
4.33	-3.461731346E-1	-4.458321593E-3	7.284704643E-3
4.34	-3.973498264E-1	-1.060656664E-2	1.048026739E-2
4.3500000000000005	-4.393332277E-1	-8.008977782E-3	1.602602104E-2
4.36	-4.696040102E-1	-1.746740762E-3	2.008307378E-2
4.37	-4.792591816E-1	-2.702480616E-3	2.098819684E-2
4.38	-4.630409840E-1	-8.898672866E-3	1.890791186E-2
4.39	-4.327898910E-1	-1.280805009E-2	1.558082085E-2
4.4	-3.949489760E-1	-9.983987197E-3	1.273483036E-2
4.41	-3.516686837E-1	-1.865037906E-3	1.076171213E-2
4.42	-2.961284455E-1	3.197847551E-3	8.507517637E-3
4.43	-2.300129472E-1	9.176588290E-4	7.364877132E-3
4.44	-1.657601100E-1	-3.759868182E-3	7.038358634E-3
4.45	-1.080841442E-1	-4.300997163E-3	6.434769264E-3
4.46	-7.126710365E-2	2.296668881E-3	5.803761434E-3
4.47	-4.719306404E-2	7.377556236E-3	5.936722135E-3
4.48	-3.086882610E-2	6.283030175E-3	4.674757335E-3
4.49	-2.228510393E-2	-1.910411681E-3	3.606300876E-3
4.5	-2.820618642E-2	-5.628140812E-3	1.957304471E-3
4.51	-4.778050656E-2	-3.649040290E-4	-1.679620719E-3
4.5200000000000005	-7.024493370E-2	4.115169225E-3	-5.908090208E-3
4.53	-8.515936427E-2	3.196438884E-3	-9.868139166E-3
4.54	-8.930867149E-2	-1.501385154E-4	-1.397467408E-2
4.55	-8.748527385E-2	-3.311017420E-3	-1.696045311E-2
4.5600000000000005	-8.290111327E-2	-2.395785170E-3	-1.813205222E-2
4.57	-7.288272708E-2	3.153003223E-3	-1.681548181E-2
4.58	-5.535101849E-2	5.327477507E-3	-1.357728895E-2
4.59	-2.857729789E-2	-1.461954892E-3	-9.699196733E-3
4.6000000000000005	-2.758024113E-3	-7.298796736E-3	-5.371343281E-3
4.61	1.593828032E-2	-6.256976909E-3	-1.974862646E-3
4.62	2.675193264E-2	-4.461905736E-4	-1.827797020E-3
4.63	3.798103664E-2	2.446453026E-3	-2.513686197E-3
4.64	5.363126148E-2	-9.578242917E-4	-3.417134010E-3
4.65	7.563880781E-2	-5.621972615E-3	-3.638278054E-3
4.66	1.014228839E-1	-5.270561265E-3	-3.617156541E-3
4.67	1.311172918E-1	1.662449383E-3	-2.517685571E-3
4.68	1.697587407E-1	8.204311699E-3	2.781957061E-4
4.69	2.243826747E-1	8.440253455E-3	2.319459702E-3
4.7	2.899273003E-1	4.649086398E-3	4.191396329E-3
4.71	3.512300037E-1	3.253211685E-3	6.344714022E-3
4.72	4.067378935E-1	7.455395830E-3	9.290622910E-3
4.73	4.450821601E-1	1.397769973E-2	8.984968274E-3
4.74	4.706639003E-1	1.355921015E-2	1.027591055E-2
4.75	4.823158316E-1	6.398909800E-3	1.172336421E-2
4.76	4.672747735E-1	-1.374593266E-4	9.226070063E-3
4.7700000000000005	4.307889768E-1	-4.802980974E-4	7.491688576E-3
4.78	3.681264555E-1	4.063252633E-3	5.706672279E-3
4.79	3.013241720E-1	5.656095718E-3	3.821464086E-3
4.8	2.340271454E-1	1.033469686E-3	3.401242331E-3
4.8100000000000005	1.684460744E-1	-4.084675715E-3	3.983345561E-3
4.82	1.075106982E-1	-4.693284876E-3	4.726342534E-3
4.83	5.145983044E-2	1.952105745E-3	6.143031536E-3
4.84	1.393971943E-2	7.110565597E-3	6.839240766E-3
4.8500000000000005	-3.925528768E-4	4.682745673E-3	6.371725414E-3
4.86	3.261072583E-3	-2.567252795E-3	2.944731218E-3
4.87	1.164917316E-2	-5.620723227E-3	-5.102559894E-4
4.88	2.334637641E-2	-1.032283183E-3	-4.425999421E-3
4.89	3.978488070E-2	2.598225412E-3	-9.362321872E-3
4.9	6.119893620E-2	5.087527160E-4	-1.248665660E-2
4.91	8.277083662E-2	-4.452925197E-3	-1.518255825E-2
4.92	9.762698159E-2	-4.645955010E-3	-1.623065895E-2
4.93	1.027687358E-1	-2.866246508E-4	-1.611204231E-2
4.94	9.742461757E-2	5.292850766E-3	-1.566064532E-2
4.95	8.810546573E-2	8.219101733E-3	-1.375252752E-2
4.96	7.535836987E-2	4.354974841E-3	-1.124732129E-2
4.97	5.659430841E-2	1.094144960E-3	-8.124709358E-3
4.98	2.666071065E-2	2.005780757E-3	-4.565192365E-3
4.99	-1.532978045E-2	7.242907669E-3	-2.214367857E-3
5.0	-5.647242148E-2	6.645033769E-3	4.610427358E-4
5.01	-9.497054942E-2	8.730958660E-4	-8.687061722E-4
5.0200000000000005	-1.339663176E-1	-6.260284663E-3	-2.804865953E-3
5.03	-1.737772036E-1	-7.414423978E-3	-2.422718867E-3
5.04	-2.160935390E-1	-5.048890236E-3	-9.979721054E-4
5.05	-2.531967461E-1	-2.554750487E-3	2.661417780E-3
5.0600000000000005	-2.826767843E-1	-3.497372439E-3	5.931079724E-3
5.07	-3.066261693E-1	-7.105435837E-3	9.780422642E-3
5.08	-3.310192901E-1	-8.410911620E-3	1.408271884E-2
5.09	-3.559629256E-1	-4.977659067E-3	1.675149822E-2
5.1000000000000005	-3.769096278E-1	-8.992938946E-4	1.755201423E-2
5.11	-3.904459420E-1	-9.936754634E-4	1.784006100E-2
5.12	-3.949869867E-1	-5.651687720E-3	1.747807132E-2
5.13	-3.932897398E-1	-8.522668763E-3	1.591428166E-2
5.14	-3.871027020E-1	-6.697124378E-3	1.399181366E-2
5.15	-3.726880209E-1	-1.735976587E-3	1.222729084E-2
5.16	-3.430361088E-1	-5.453007232E-5	1.023070324E-2
5.17	-2.936736294E-1	-4.369252287E-3	7.938516948E-3
5.18	-2.308693315E-1	-5.225608124E-3	7.395054351E-3
5.19	-1.723913628E-1	-3.880625306E-3	7.112439732E-3
5.2	-1.129985202E-1	1.390843565E-3	6.649972718E-3
5.21	-5.685482753E-2	4.825947843E-3	6.017054951E-3
5.22	-6.314587636E-3	3.213896708E-3	5.370133439E-3
5.23	3.339223044E-2	-6.587037078E-4	3.290151526E-3
5.24	4.951721804E-2	-1.823209369E-3	-6.377358250E-4
5.25	4.159602083E-2	6.928468935E-4	-4.054765161E-3
5.26	1.682744764E-2	2.583492458E-3	-8.297668620E-3
5.2700000000000005	-1.654357206E-2	2.425394491E-3	-1.303410180E-2
5.28	-5.293468881E-2	-3.139126890E-3	-1.383522229E-2
5.29	-9.336014823E-2	-6.094389768E-3	-1.491483366E-2
5.3	-1.299228856E-1	-2.768448938E-3	-1.199775167E-2
5.3100000000000005	-1.506836502E-1	2.067406349E-3	-1.013483409E-2
5.32	-1.502447005E-1	2.213378663E-3	-8.562393076E-3
5.33	-1.316551395E-1	-9.041065666E-4	-6.536596016E-3
5.34	-9.478275199E-2	-4.052669304E-3	-4.934420760E-3
5.3500000000000005	-4.924566670E-2	-3.124675295E-3	-3.845516750E-3
5.36	3.105557105E-3	1.158898016E-3	-2.798545876E-3
5.37	6.265788941E-2	2.212185178E-3	-2.195765577E-3
5.38	1.247798193E-1	-1.971564661E-3	-2.840778958E-3
5.39	1.807097801E-1	-6.433316307E-3	-2.397097986E-3
5.4	2.279823628E-1	-5.388862314E-3	-1.808333586E-3
5.41	2.576826673E-1	2.140078084E-4	-1.236091627E-3
5.42	2.820759796E-1	5.085647533E-3	-1.156850798E-3
5.43	3.074760770E-1	4.080836353E-3	2.185967504E-3
5.44	3.298216432E-1	2.910253532E-4	5.077035040E-3
5.45	3.426120311E-1	2.952026412E-3	7.796263637E-3
5.46	3.496442574E-1	9.277239618E-3	1.069922128E-2
5.47	3.540992558E-1	1.412658053E-2	1.276062255E-2
5.48	3.604532475E-1	1.303947570E-2	1.281181355E-2
5.49	3.643252443E-1	6.981103184E-3	1.118479181E-2
5.5	3.610776984E-1	2.424423549E-3	8.719164935E-3
5.51	3.458412983E-1	3.674611606E-3	6.327247719E-3
5.5200000000000005	3.204895001E-1	6.376894391E-3	4.895506889E-3
5.53	2.911665538E-1	4.001710595E-3	3.844686818E-3
5.54	2.587212848E-1	-2.259963342E-3	4.159190276E-3
5.55	2.182464939E-1	-8.140292554E-3	7.034242041E-3
5.5600000000000005	1.735149112E-1	-8.088435039E-3	7.400920572E-3
5.57	1.267223291E-1	-2.459635697E-3	6.926287029E-3
5.58	8.111288504E-2	5.577697636E-4	6.535151345E-3
5.59	4.614048623E-2	9.164396698E-5	4.159000334E-3
5.6000000000000005	2.211369880E-2	-2.651887890E-3	1.353815297E-3
5.61	3.431711653E-3	-3.000025136E-3	-1.041776821E-3
5.62	-9.636964746E-3	2.916727497E-3	-4.510281392E-3
5.63	-1.228443597E-2	6.158325845E-3	-7.020455569E-3
5.64	-1.001634192E-3	4.403419133E-3	-9.954396339E-3
5.65	1.872880728E-2	1.050019082E-3	-1.295380614E-2
5.66	4.195548170E-2	-2.945788979E-4	-1.455097277E-2
5.67	6.309362575E-2	1.678965715E-3	-1.485080047E-2
5.68	8.310453701E-2	3.764325187E-3	-1.287404452E-2
5.69	1.014757483E-1	3.951960215E-3	-9.637681833E-3
5.7	1.110564300E-1	3.800607828E-4	-7.633042548E-3
5.71	1.101518513E-1	-2.377484970E-3	-3.991482691E-3
5.72	8.638329258E-2	1.473599533E-3	-3.316186427E-3
5.73	4.610414642E-2	4.390804439E-3	-3.546085106E-3
5.74	-3.987686096E-3	4.558247961E-3	-2.934037831E-3
5.75	-6.514458498E-2	3.458131011E-4	-2.534069273E-3
5.76	-1.311869812E-1	-1.831783242E-3	-1.393074868E-3
5.7700000000000005	-2.055324610E-1	-1.608836794E-3	9.787788955E-4
5.78	-2.795219267E-1	-3.284192759E-4	3.742592047E-3
5.79	-3.386866655E-1	5.529730200E-4	6.809150167E-3
5.8	-3.789253213E-1	-3.608797281E-3	9.627528442E-3
5.8100000000000005	-4.023120900E-1	-8.983787275E-3	1.221966740E-2
5.82	-4.130171704E-1	-1.019167307E-2	1.432300131E-2
5.83	-4.092469666E-1	-7.154137345E-3	1.588231052E-2
5.84	-3.928708887E-1	-4.584387974E-3	1.756559474E-2
5.8500000000000005	-3.626488353E-1	-4.396245854E-3	1.818537339E-2
5.86	-3.274464718E-1	-8.175660945E-3	1.673421300E-2
5.87	-2.923251864E-1	-9.337164708E-3	1.545518777E-2
5.88	-2.693898719E-1	-4.335705375E-3	1.393597740E-2
5.89	-2.489959188E-1	8.875194940E-5	1.016515574E-2
5.9	-2.292215047E-1	2.927612078E-4	9.258019667E-3
5.91	-2.080625079E-1	-2.492971619E-3	8.413326190E-3
5.92	-1.910183645E-1	-3.572850405E-3	7.906639680E-3
5.93	-1.734390410E-1	-1.147815551E-3	9.501821871E-3
5.94	-1.553325125E-1	2.446239413E-3	1.010636774E-2
5.95	-1.316398998E-1	3.635457256E-3	8.663893729E-3
5.96	-9.995728174E-2	1.149354145E-3	5.116231347E-3
5.97	-6.642991221E-2	-2.265943608E-3	9.496310998E-4
5.98	-3.878825349E-2	-2.352357967E-3	-2.287660950E-3
5.99	-1.970444287E-2	1.023913811E-3	-5.758044525E-3
6.0	-6.939255940E-3	3.375691635E-3	-9.378247049E-3
6.01	7.474340263E-5	3.444118062E-3	-1.136955225E-2
6.0200000000000005	-1.803048653E-3	-8.603551043E-4	-1.238865891E-2
6.03	-1.588282275E-2	-2.947217993E-3	-1.332120400E-2
6.04	-4.079511738E-2	-7.789950050E-4	-1.162798405E-2
6.05	-6.759024208E-2	1.797595890E-3	-1.024001891E-2
6.0600000000000005	-8.466749270E-2	4.086706791E-5	-8.059465077E-3
6.07	-9.059748226E-2	-3.720810214E-3	-5.829967587E-3
6.08	-8.682505443E-2	-6.085092389E-3	-3.163698574E-3
6.09	-7.245731751E-2	-3.345350478E-3	-1.285270184E-3
6.1000000000000005	-4.402819675E-2	-5.416549605E-5	-8.995240232E-4
6.11	2.006198374E-3	8.525556053E-4	-2.081582504E-3
6.12	5.948912668E-2	-8.984427062E-4	-2.973387979E-3
6.13	1.253200301E-1	-2.279579788E-3	-3.082903106E-3
6.140000000000001	1.909235325E-1	-9.381477389E-4	-2.617592428E-3
6.15	2.508372503E-1	3.432664519E-3	-1.333708230E-3
6.16	3.083515533E-1	7.121249505E-3	6.608494236E-4
6.17	3.581957298E-1	5.742543639E-3	3.891832412E-3
6.18	3.981465664E-1	2.537153936E-3	7.448513575E-3
6.19	4.214072878E-1	2.153369685E-3	9.844387505E-3
6.2	4.242341880E-1	6.908699095E-3	9.079344476E-3
6.21	4.147801928E-1	9.526694641E-3	9.411466930E-3
6.22	3.953622051E-1	5.153794297E-3	8.934090284E-3
6.23	3.692341195E-1	2.458101139E-3	8.642401031E-3
6.24	3.303957453E-1	2.175141533E-3	8.548766872E-3
6.25	2.830865523E-1	4.524761618E-3	8.406739874E-3
6.26	2.361024843E-1	6.382580265E-3	7.121046303E-3
6.2700000000000005	1.948615044E-1	4.484074513E-3	6.258774212E-3
6.28	1.588264263E-1	2.653442338E-4	6.421542724E-3
6.29	1.283672415E-1	-3.247422921E-3	6.632716563E-3
6.3	1.041867456E-1	-2.715615545E-3	6.269274409E-3
6.3100000000000005	8.459246524E-2	7.388281462E-4	5.747576768E-3
6.32	7.647138070E-2	8.368956218E-4	6.331462721E-3
6.33	7.623069156E-2	-2.507421727E-3	5.413728193E-3
6.34	8.000838639E-2	-5.662106522E-3	1.656448817E-3
6.3500000000000005	8.080460398E-2	-4.475585246E-3	-1.729439434E-3
6.36	7.911409657E-2	-1.064295433E-3	-6.866227772E-3
6.37	7.529033072E-2	2.669159313E-3	-1.123271848E-2
6.38	7.089610839E-2	2.236269744E-3	-1.384603951E-2
6.390000000000001	6.437773849E-2	7.514630328E-4	-1.373929791E-2
6.4	5.659294715E-2	1.113705749E-3	-1.380257313E-2
6.41	4.374838244E-2	5.756461913E-3	-1.169764517E-2
6.42	3.154332779E-2	7.752534714E-3	-9.065063120E-3
6.43	2.453219474E-2	5.700286696E-3	-6.521775802E-3
6.44	2.122930483E-2	2.246973448E-3	-4.876412827E-3
6.45	1.677936557E-2	-2.179117904E-4	-4.976163445E-3
6.46	7.674479217E-3	5.505769026E-5	-4.331509378E-3
6.47	-7.067202774E-3	1.286374435E-3	-3.032529964E-3
6.48	-2.678900756E-2	2.430232341E-4	-3.569673853E-3
6.49	-5.333714364E-2	-3.277654006E-3	-2.219299334E-3
6.5	-9.357011476E-2	-5.370442142E-3	6.989191055E-4
6.51	-1.473306359E-1	-3.461410826E-3	2.349690382E-3
6.5200000000000005	-2.094922671E-1	-1.352936397E-3	3.087536766E-3
6.53	-2.709181972E-1	-4.819642749E-5	5.339468334E-3
6.54	-3.306365502E-1	-4.310625475E-3	1.013644116E-2
6.55	-3.805098939E-1	-6.751969298E-3	1.296631586E-2
6.5600000000000005	-4.205243869E-1	-6.180726686E-3	1.571341619E-2
6.57	-4.461941454E-1	-4.333497673E-3	1.828686045E-2
6.58	-4.504682005E-1	-3.402297399E-3	1.970287810E-2
6.59	-4.326951011E-1	-5.895137853E-3	1.798861953E-2
6.6000000000000005	-3.947036703E-1	-8.383820407E-3	1.518635679E-2
6.61	-3.473565510E-1	-8.442615804E-3	1.287903523E-2
6.62	-2.952808406E-1	-5.393439022E-3	1.110271266E-2
6.63	-2.396678412E-1	-1.328775359E-3	9.838619257E-3
6.640000000000001	-1.849984305E-1	-7.888155269E-4	9.058973573E-3
6.65	-1.313741068E-1	-2.497896677E-3	9.254912144E-3
6.66	-9.432778937E-2	-2.101205933E-3	9.453699642E-3
6.67	-7.205924358E-2	1.772361972E-4	8.132275148E-3
6.68	-6.279728153E-2	3.416982639E-3	6.624363626E-3
6.69	-5.857824286E-2	3.620398888E-3	5.975820882E-3
6.7	-5.985460285E-2	3.440218538E-4	3.273731898E-3
6.71	-6.520512893E-2	-3.212528058E-3	-3.397337573E-4
6.72	-7.452398568E-2	-3.456409805E-3	-2.578220682E-3
6.73	-8.605830144E-2	-1.794135453E-4	-4.938729324E-3
6.74	-9.415725820E-2	2.442160690E-3	-8.743756943E-3
6.75	-9.463503439E-2	1.182422675E-3	-1.122757116E-2
6.76	-9.176438574E-2	-2.696177256E-3	-1.120661316E-2
6.7700000000000005	-8.725802993E-2	-2.586377313E-3	-1.215941471E-2
6.78	-8.056569586E-2	-1.396072531E-5	-1.166276688E-2
6.79	-6.941743923E-2	1.491197381E-3	-9.224881477E-3
6.8	-5.223199692E-2	4.602458350E-4	-6.192571477E-3
6.8100000000000005	-3.054962168E-2	-2.293583128E-3	-3.718626443E-3
6.82	-5.658425727E-3	-4.238901347E-3	-2.637545611E-3
6.83	1.970203435E-2	-3.150969510E-3	-2.928237638E-3
6.84	4.682940148E-2	-9.992256017E-4	-3.296393487E-3
6.8500000000000005	7.809510015E-2	-1.410394266E-3	-4.376434757E-3
6.86	1.149232987E-1	-3.077739867E-3	-4.340092977E-3
6.87	1.531023524E-1	-3.234931944E-3	-3.827452329E-3
6.88	1.884611182E-1	-4.848987981E-4	-1.649724629E-3
6.890000000000001	2.237249189E-1	5.384608478E-3	2.088724863E-4
6.9	2.620491973E-1	6.423821336E-3	3.294550105E-3
6.91	3.000511636E-1	6.893339157E-3	5.661679105E-3
6.92	3.323650668E-1	6.103965056E-3	7.022910888E-3
6.93	3.596428010E-1	8.319300702E-3	9.101446568E-3
6.94	3.788367263E-1	1.081710953E-2	9.287268294E-3
6.95	3.902815555E-1	9.758870858E-3	9.290455965E-3
6.96	3.950513802E-1	6.465413074E-3	9.694314328E-3
6.97	3.879763865E-1	2.371521973E-3	8.510922926E-3
6.98	3.665679116E-1	-3.831962717E-4	7.111985350E-3
6.99	3.300325666E-1	4.881314085E-4	7.204231569E-3
7.0	2.834116363E-1	1.568926862E-3	6.512500187E-3
7.01	2.317460043E-1	-4.788152565E-4	4.788300291E-3
7.0200000000000005	1.772422074E-1	-4.454178083E-3	4.243274730E-3
7.03	1.208623649E-1	-4.378139208E-3	7.347126749E-3
7.04	7.073251840E-2	-2.159853093E-4	8.052094364E-3
7.05	3.155567270E-2	3.492348529E-3	6.545103405E-3
7.0600000000000005	7.245478410E-3	3.527022575E-3	5.855737802E-3
7.07	9.636592720E-4	2.094166129E-3	4.283160515E-3
7.08	1.073651202E-2	-8.670135571E-4	-2.658953299E-5
7.09	2.720440668E-2	-8.997308985E-5	-5.699389888E-3
7.1000000000000005	5.162427153E-2	1.699964064E-3	-9.685601349E-3
7.11	8.101353066E-2	8.801568977E-4	-1.141024487E-2
7.12	1.100750721E-1	-6.799758706E-4	-1.307115751E-2
7.13	1.311545901E-1	-1.143281246E-3	-1.399779967E-2
7.140000000000001	1.378940883E-1	-8.015084504E-4	-1.194485582E-2
7.15	1.309093945E-1	2.931198400E-3	-1.083336142E-2
7.16	1.109860622E-1	5.579530716E-3	-1.055260559E-2
7.17	8.220881980E-2	5.115709902E-3	-7.177340861E-3
7.18	4.438253767E-2	2.260006466E-3	-6.838602390E-3
7.19	1.111244258E-3	2.964833892E-3	-4.889609378E-3
7.2	-4.436637540E-2	2.192775793E-3	-3.321897175E-3
7.21	-9.061686771E-2	4.615893251E-3	-3.928233770E-3
7.22	-1.294965632E-1	6.556891992E-4	-2.222292723E-3
7.23	-1.637309078E-1	-3.270952184E-3	-1.693590213E-3
7.24	-1.934911248E-1	-5.300848869E-3	-1.059304193E-3
7.25	-2.216927175E-1	-4.214705742E-3	9.131491410E-4
7.26	-2.478587591E-1	-3.602185690E-3	4.055659485E-3
7.2700000000000005	-2.725096431E-1	-4.839883380E-3	6.823557954E-3
7.28	-2.949288305E-1	-6.905233937E-3	9.821507996E-3
7.29	-3.153146489E-1	-8.088818366E-3	1.315853172E-2
7.3	-3.373507874E-1	-6.740974322E-3	1.509828496E-2
7.3100000000000005	-3.582871978E-1	-3.516950245E-3	1.523941753E-2
7.32	-3.669040590E-1	-2.231116954E-3	1.517805651E-2
7.33	-3.682889188E-1	-4.762264167E-3	1.364645902E-2
7.34	-3.580142918E-1	-6.184197920E-3	1.287700533E-2
7.3500000000000005	-3.399286695E-1	-5.802898966E-3	1.246074519E-2
7.36	-3.121551452E-1	-2.545198578E-3	1.084071595E-2
7.37	-2.759654484E-1	-6.089943762E-4	1.134581576E-2
7.38	-2.330171841E-1	-2.478677598E-4	1.051429126E-2
7.390000000000001	-1.864508305E-1	-2.064906235E-3	1.070530211E-2
7.4	-1.397507688E-1	-2.954468312E-3	9.287933750E-3
7.41	-9.988030131E-2	-1.229015105E-3	7.100447004E-3
7.42	-6.808508049E-2	1.664583459E-3	5.488512740E-3
7.43	-4.195913383E-2	2.020070046E-3	3.498087838E-3
7.44	-2.313843547E-2	4.203755576E-4	7.124784608E-4
7.45	-1.458995185E-2	-7.907470970E-4	-1.928895070E-3
7.46	-1.896750657E-2	5.879331135E-5	-3.630758331E-3
7.47	-3.265084515E-2	3.913261671E-4	-6.353393014E-3
7.48	-5.143429984E-2	2.381736079E-4	-1.009123609E-2
7.49	-6.970257236E-2	-9.148669438E-4	-1.282302056E-2
7.5	-8.916223772E-2	-3.190799721E-3	-1.173406389E-2
7.51	-1.067936222E-1	-3.711156864E-3	-1.013118636E-2
7.5200000000000005	-1.183512813E-1	-1.740880485E-3	-8.703596621E-3
7.53	-1.207201543E-1	-4.150956859E-4	-6.695469276E-3
7.54	-1.080820302E-1	-1.477914257E-3	-5.007910762E-3
7.55	-8.260168868E-2	-2.570890529E-3	-5.355478961E-3
7.5600000000000005	-4.655022613E-2	-1.972268046E-3	-5.610698311E-3
7.57	-1.460860168E-3	2.612104502E-4	-4.793793612E-3
7.58	5.035492630E-2	1.680265767E-3	-4.505223957E-3
7.59	1.115983898E-1	8.897088355E-4	-4.623664971E-3
7.6000000000000005	1.757765840E-1	-1.394077665E-3	-4.016174126E-3
7.61	2.301960882E-1	-2.320426920E-3	-2.408365238E-3
7.62	2.752126269E-1	-6.630272790E-4	-2.577745106E-3
7.63	3.087862975E-1	2.963988209E-3	8.299773672E-4
7.640000000000001	3.339205099E-1	4.293985635E-3	3.249235047E-3
7.65	3.471468142E-1	3.981009811E-3	5.683326459E-3
7.66	3.501820964E-1	3.784325153E-3	8.067634280E-3
7.67	3.427363248E-1	5.627800317E-3	9.108158018E-3
7.68	3.298501928E-1	8.692380883E-3	9.611883597E-3
7.69	3.152572818E-1	1.034989663E-2	9.861393582E-3
7.7	3.025300514E-1	8.184459447E-3	8.644735695E-3
7.71	2.906015126E-1	4.450363645E-3	7.367909459E-3
7.72	2.773763615E-1	2.699248538E-3	6.743073347E-3
7.73	2.612699357E-1	2.986896157E-3	5.238168270E-3
7.74	2.441804214E-1	2.892551816E-3	4.164280608E-3
7.75	2.243351515E-1	-2.591604314E-4	6.325300295E-3
7.76	2.024935960E-1	-5.344643811E-3	7.511472175E-3
7.7700000000000005	1.755371587E-1	-5.848423868E-3	7.666849743E-3
7.78	1.409322434E-1	-3.651054444E-3	7.332338957E-3
7.79	1.055360365E-1	-1.109163356E-3	5.687636049E-3
7.8	7.306665642E-2	-1.054434953E-3	2.859818454E-3
7.8100000000000005	4.599577710E-2	-2.070437192E-3	-6.634115415E-4
7.82	2.635359160E-2	-1.202384297E-3	-3.828900742E-3
7.83	1.411046234E-2	1.860116588E-3	-6.445955809E-3
7.84	1.314637932E-2	4.556347935E-3	-8.885813762E-3
7.8500000000000005	2.236664896E-2	5.298928312E-3	-1.144605812E-2
7.86	4.136387363E-2	3.710311137E-3	-1.300004926E-2
7.87	6.547613122E-2	1.787440280E-3	-1.265241404E-2
7.88	8.845519392E-2	1.336937997E-3	-1.206801584E-2
7.890000000000001	1.016993050E-1	2.536974383E-3	-1.055413063E-2
7.9	1.079551340E-1	2.708166156E-3	-8.775670047E-3
7.91	1.058685283E-1	9.252180429E-4	-7.243578562E-3
7.92	9.180180209E-2	-6.707571912E-4	-6.933069250E-3
7.930000000000001	5.528953270E-2	-6.810951672E-4	-4.452975982E-3
7.94	9.308327594E-3	1.475663356E-3	-4.633283474E-3
7.95	-4.644515869E-2	1.658032355E-3	-4.181591186E-3
7.96	-1.065926956E-1	3.234560558E-5	-3.855475454E-3
7.97	-1.660824828E-1	-1.793470528E-3	-2.309759321E-3
7.98	-2.206141906E-1	-2.220005890E-3	-4.756459539E-5
7.99	-2.722523017E-1	-1.720451018E-3	3.138331967E-3
8.0	-3.167299138E-1	-2.439842196E-3	7.038639477E-3
8.01	-3.465953451E-1	-4.727246003E-3	1.004582694E-2
8.02	-3.661680978E-1	-6.333196355E-3	1.188469088E-2
8.03	-3.730449813E-1	-7.690101367E-3	1.446873440E-2
8.040000000000001	-3.723241277E-1	-8.279461525E-3	1.445554576E-2
8.05	-3.606528308E-1	-5.656366690E-3	1.460233205E-2
8.06	-3.418965235E-1	-5.325507679E-3	1.412036391E-2
8.07	-3.138380243E-1	-6.749602102E-3	1.341047393E-2
8.08	-2.838357961E-1	-6.478514616E-3	1.241762001E-2
8.09	-2.546268334E-1	-4.184388884E-3	1.133384579E-2
8.1	-2.266369701E-1	-1.467366325E-3	1.032773020E-2
8.11	-2.000711508E-1	6.112001996E-4	9.234363155E-3
8.120000000000001	-1.743327872E-1	1.274535261E-3	8.285874306E-3
8.13	-1.493385722E-1	-9.166112973E-4	8.838598936E-3
8.14	-1.321809121E-1	-2.296831571E-3	7.896364544E-3
8.15	-1.195411910E-1	5.286609004E-4	8.063305847E-3
8.16	-1.089934048E-1	1.091926870E-3	7.408420201E-3
8.17	-1.002444761E-1	1.653276778E-4	4.282998602E-3
8.18	-9.008928964E-2	-9.647945871E-4	8.142500166E-4
8.19	-8.065434130E-2	-1.891446486E-3	-3.230035377E-3
8.2	-7.396011869E-2	-1.002069254E-3	-7.025137151E-3
8.21	-6.872873303E-2	1.286749736E-3	-9.739364386E-3
8.22	-6.212255444E-2	1.303699364E-3	-1.204055368E-2
8.23	-5.517768876E-2	-1.256220779E-3	-1.257528561E-2
8.24	-5.166600841E-2	-2.777231579E-3	-1.125274343E-2
8.25	-5.101588796E-2	-2.657313300E-3	-9.834514933E-3
8.26	-5.368779979E-2	-1.489608861E-3	-9.315702541E-3
8.27	-5.541800935E-2	-1.315208636E-3	-7.129632618E-3
8.28	-5.266428586E-2	-2.769079487E-3	-6.236950335E-3
8.290000000000001	-4.499257935E-2	-4.398680029E-3	-4.472288018E-3
8.3	-3.136607012E-2	-4.386134411E-3	-5.273384421E-3
8.31	-9.161378446E-3	-2.414993469E-3	-4.619920704E-3
8.32	2.490635248E-2	1.870109204E-4	-3.203619352E-3
8.33	6.876675738E-2	4.553015368E-4	-3.515019743E-3
8.34	1.243644976E-1	3.015203758E-5	-3.951517758E-3
8.35	1.854012906E-1	3.248203691E-4	-2.665242807E-3
8.36	2.450562037E-1	2.539646279E-3	-4.669416002E-4
8.370000000000001	2.986151494E-1	5.562570871E-3	6.328816820E-4
8.38	3.454555132E-1	5.257162198E-3	2.477049392E-3
8.39	3.841599925E-1	3.481447089E-3	5.519388735E-3
8.4	4.038232746E-1	2.873571656E-3	6.630101247E-3
8.41	4.055244988E-1	4.959960375E-3	7.385407393E-3
8.42	3.900262534E-1	6.470108296E-3	8.121123115E-3
8.43	3.605720626E-1	6.128762991E-3	7.648754939E-3
8.44	3.226228387E-1	3.470039863E-3	6.243379573E-3
8.45	2.811863342E-1	1.668019744E-3	5.310109420E-3
8.46	2.376531139E-1	2.343733895E-3	5.768972019E-3
8.47	1.959693066E-1	3.319929127E-3	6.068833639E-3
8.48	1.611612345E-1	2.985119984E-3	6.948314480E-3
8.49	1.360294749E-1	1.968936970E-4	7.484233479E-3
8.5	1.175816934E-1	-2.079309784E-3	6.901653753E-3
8.51	1.061838198E-1	-2.515872579E-3	6.044735989E-3
8.52	1.000861650E-1	-2.135354731E-3	5.644775455E-3
8.53	9.672946298E-2	-7.825582971E-4	4.263086857E-3
8.540000000000001	9.597489170E-2	-1.581267020E-3	2.025333133E-3
8.55	9.809731650E-2	-3.554277609E-3	-9.648114134E-4
8.56	9.791828001E-2	-3.437708203E-3	-4.485875911E-3
8.57	9.295612007E-2	2.449205748E-4	-7.864468323E-3
8.58	8.750424329E-2	2.401631036E-3	-1.188659749E-2
8.59	8.229838531E-2	2.873687334E-3	-1.299444356E-2
8.6	7.832060627E-2	2.608394372E-3	-1.279281316E-2
8.61	7.396921179E-2	2.673882720E-3	-1.238772521E-2
8.620000000000001	6.511997648E-2	3.457662245E-3	-1.057422286E-2
8.63	5.497273838E-2	4.741864083E-3	-8.799107234E-3
8.64	4.450659257E-2	4.844749960E-3	-7.781948703E-3
8.65	3.133534752E-2	3.186837720E-3	-6.888864976E-3
8.66	1.382913761E-2	5.635485316E-4	-5.522701607E-3
8.67	-7.205793390E-3	-6.962853703E-4	-5.018570716E-3
8.68	-3.539596883E-2	-5.819437267E-4	-5.323625602E-3
8.69	-6.881687962E-2	-8.912018472E-4	-4.539496154E-3
8.700000000000001	-1.038320878E-1	-2.104482681E-3	-3.438246330E-3
8.71	-1.450411380E-1	-3.487238227E-3	-7.700011813E-4
8.72	-1.883939102E-1	-4.299382914E-3	2.134737416E-3
8.73	-2.332551894E-1	-1.785403421E-3	3.440918695E-3
8.74	-2.731869407E-1	-2.714379989E-3	5.428541515E-3
8.75	-3.108819297E-1	-2.925647510E-3	7.891949546E-3
8.76	-3.406726608E-1	-4.778904564E-3	1.146043470E-2
8.77	-3.634269458E-1	-6.360129917E-3	1.366953906E-2
8.78	-3.783554000E-1	-5.681993882E-3	1.453533668E-2
8.790000000000001	-3.823181835E-1	-4.415513187E-3	1.461747596E-2
8.8	-3.727321687E-1	-4.886758885E-3	1.430238418E-2
8.81	-3.488066324E-1	-6.184013913E-3	1.285437387E-2
8.82	-3.164871416E-1	-6.578953841E-3	1.121501092E-2
8.83	-2.771057620E-1	-5.088986973E-3	9.861207311E-3
8.84	-2.320517851E-1	-2.732631991E-3	8.632432048E-3
8.85	-1.839189393E-1	-6.666076500E-4	9.616733693E-3
8.86	-1.382506074E-1	-2.799475574E-4	9.614517621E-3
8.870000000000001	-9.988099993E-2	-1.561109250E-3	8.893264561E-3
8.88	-7.008284405E-2	-4.243013346E-4	8.668322222E-3
8.89	-5.416728039E-2	2.312485762E-3	6.192625377E-3
8.9	-5.117648458E-2	8.981275899E-4	4.405815432E-3
8.91	-5.510931733E-2	3.406839049E-5	8.766753114E-4
8.92	-6.644098647E-2	-1.954767953E-3	-1.229502095E-3
8.93	-8.489767921E-2	-2.504679801E-3	-4.323882923E-3
8.94	-1.054751865E-1	-1.198301618E-3	-6.609851821E-3
8.950000000000001	-1.215195582E-1	-3.199957179E-4	-9.071398558E-3
8.96	-1.291798515E-1	-2.369551475E-4	-1.066803180E-2
8.97	-1.280036573E-1	-1.159281041E-3	-1.087974372E-2
8.98	-1.172471486E-1	-2.008379021E-3	-1.041265472E-2
8.99	-1.010532861E-1	-1.031722062E-3	-9.629513945E-3
9.0	-7.628099550E-2	-8.893785143E-4	-8.507235000E-3
9.01	-4.828670168E-2	4.042906611E-4	-7.560212516E-3
9.02	-1.563837065E-2	-2.074999954E-3	-6.469504730E-3
9.03	2.089013700E-2	-3.313200246E-3	-6.094774506E-3
9.040000000000001	5.092763822E-2	-3.102240823E-3	-4.578363087E-3
9.05	7.964299276E-2	-1.391946896E-3	-5.082318651E-3
9.06	1.073029294E-1	-1.475988529E-3	-5.882387002E-3
9.07	1.363583635E-1	-1.469902590E-3	-5.931521869E-3
9.08	1.665482716E-1	-1.002858675E-3	-3.777024406E-3
9.09	1.949714272E-1	8.777313907E-4	-1.853704781E-3
9.1	2.232026446E-1	3.854391514E-3	9.613562751E-5
9.11	2.545285114E-1	6.392745151E-3	1.855220179E-3
9.120000000000001	2.865281991E-1	7.324877943E-3	3.714429870E-3
9.13	3.150240223E-1	6.376734371E-3	5.726685085E-3
9.14	3.388421634E-1	5.492429406E-3	6.683995963E-3
9.15	3.566017789E-1	6.313162207E-3	7.971365283E-3
9.16	3.592147881E-1	6.426446205E-3	6.592027204E-3
9.17	3.541789260E-1	4.915522874E-3	6.611376681E-3
9.18	3.393859068E-1	2.129049716E-3	5.924968174E-3
9.19	3.114179432E-1	-2.321440780E-4	6.096959972E-3
9.200000000000001	2.769216522E-1	-7.758987887E-4	6.511076918E-3
9.21	2.353104729E-1	-5.076305869E-4	6.636659967E-3
9.22	1.912939040E-1	-9.256661185E-4	6.839990129E-3
9.23	1.500286491E-1	-2.088262200E-3	6.746245530E-3
9.24	1.139834487E-1	-2.373495789E-3	6.214381230E-3
9.25	8.397690402E-2	-1.421250745E-3	5.889244884E-3
9.26	5.989065400E-2	-1.194615000E-4	4.933284029E-3
9.27	4.820164198E-2	1.648172576E-3	3.895351771E-3
9.28	4.423541193E-2	7.120996766E-4	-7.028071324E-5
9.290000000000001	5.029078048E-2	-5.375714227E-4	-3.000985768E-3
9.3	6.174595303E-2	-3.561405690E-4	-6.976340791E-3
9.31	7.521032951E-2	8.643044406E-4	-9.491549454E-3
9.32	9.022721196E-2	2.903574191E-3	-1.022461887E-2
9.33	1.049646468E-1	1.999552355E-3	-1.209547486E-2
9.34	1.170130410E-1	3.438318076E-4	-1.184025414E-2
9.35	1.225691918E-1	2.008328336E-4	-1.093758278E-2
9.36	1.162337944E-1	2.042664857E-3	-1.024496080E-2
9.370000000000001	1.010932273E-1	3.530043448E-3	-9.431947496E-3
9.38	7.755594951E-2	3.338728169E-3	-8.551788854E-3
9.39	4.699386563E-2	2.539182262E-3	-7.293234835E-3
9.4	8.875473216E-3	1.679302207E-3	-5.470444110E-3
9.41	-3.696030030E-2	1.489071201E-3	-4.614846890E-3
9.42	-8.460360662E-2	1.391097599E-3	-3.774615703E-3
9.43	-1.347181433E-1	2.583124137E-4	-2.640574540E-3
9.44	-1.804290578E-1	-1.687325551E-3	-3.805697669E-3
9.450000000000001	-2.187687536E-1	-4.410234358E-3	-1.251032933E-3
9.46	-2.506632276E-1	-4.239007197E-3	1.720274303E-3
9.47	-2.757096425E-1	-2.923025778E-3	4.997430851E-3
9.48	-2.935868793E-1	-4.611105019E-3	7.787905606E-3
9.49	-3.035161737E-1	-5.960318409E-3	9.240849299E-3
9.5	-3.085982411E-1	-5.650466300E-3	1.097255850E-2
9.51	-3.108735833E-1	-5.406923193E-3	1.270600911E-2
9.52	-3.110939209E-1	-4.633795655E-3	1.290498900E-2
9.53	-3.083013038E-1	-3.528751083E-3	1.150941899E-2
9.540000000000001	-3.030859469E-1	-4.270831653E-3	1.119511244E-2
9.55	-2.944521292E-1	-4.778914242E-3	1.134872949E-2
9.56	-2.826228720E-1	-4.733574207E-3	1.070007507E-2
9.57	-2.666904644E-1	-3.453131220E-3	1.033695738E-2
9.58	-2.470652562E-1	-1.704680201E-3	1.008286086E-2
9.59	-2.170846716E-1	-5.441900107E-4	9.997343599E-3
9.6	-1.844261733E-1	-1.619526083E-3	9.188999630E-3
9.61	-1.484231659E-1	-2.377275489E-3	7.151354168E-3
9.620000000000001	-1.146575810E-1	-2.839610802E-4	5.319255672E-3
9.63	-8.523457548E-2	7.344058099E-4	5.245972067E-3
9.64	-6.109717893E-2	1.109035895E-3	2.442565445E-3
9.65	-4.236709386E-2	7.768163884E-5	-3.995711176E-4
9.66	-3.448162836E-2	-1.191228138E-3	-3.081793488E-3
9.67	-3.846605853E-2	-1.601489853E-3	-5.482387478E-3
9.68	-5.214268911E-2	-1.410503613E-3	-7.606770391E-3
9.69	-7.051155633E-2	-1.055102590E-3	-9.664676249E-3
9.700000000000001	-9.010248485E-2	-1.587881010E-3	-1.046394768E-2
9.71	-1.080937368E-1	-3.099016570E-3	-9.618459306E-3
9.72	-1.202183926E-1	-3.162240207E-3	-8.924008656E-3
9.73	-1.254956618E-1	-1.683573656E-3	-7.901274647E-3
9.74	-1.169191876E-1	-4.358673933E-4	-6.426912974E-3
9.75	-9.649103114E-2	-8.995833220E-4	-6.124643813E-3
9.76	-6.258720834E-2	-2.451975010E-3	-4.849301960E-3
9.77	-1.791879685E-2	-2.011701450E-3	-5.264687896E-3
9.78	2.907809431E-2	-1.557905041E-3	-6.161777468E-3
9.790000000000001	8.110031758E-2	-3.924476236E-4	-6.166750617E-3
9.8	1.355125654E-1	3.074638068E-4	-6.735241638E-3
9.81	1.858684840E-1	-3.190078091E-4	-5.912249708E-3
9.82	2.280914673E-1	-4.220008238E-4	-3.372307847E-3
9.83	2.635347179E-1	1.057277642E-3	-1.884233120E-3
9.84	2.912109943E-1	3.586048443E-3	-1.591681879E-4
9.85	3.085621179E-1	5.512811669E-3	2.574892458E-3
9.86	3.205794393E-1	5.296528771E-3	4.382373950E-3
9.870000000000001	3.254000175E-1	4.301597071E-3	5.998624312E-3
9.88	3.246594956E-1	5.201864939E-3	6.079538225E-3
9.89	3.128382879E-1	6.685406134E-3	7.369380750E-3
9.9	2.992709588E-1	8.507294950E-3	7.872120678E-3
9.91	2.846448235E-1	6.145124398E-3	7.074678753E-3
9.92	2.669110296E-1	2.712392196E-3	6.043681963E-3
9.93	2.464684902E-1	1.260531132E-3	5.760054988E-3
9.94	2.241691945E-1	6.712751283E-4	5.881006359E-3
9.950000000000001	2.011310092E-1	3.365859051E-4	6.308618611E-3
9.96	1.814539418E-1	-1.082936283E-3	6.598425342E-3
9.97	1.636624342E-1	-2.905331020E-3	7.299483142E-3
9.98	1.447528793E-1	-3.207833151E-3	6.791196360E-3
9.99	1.263768763E-1	-2.411429159E-3	5.047236264E-3
10.0	1.095179215E-1	-1.143621392E-3	2.949413287E-3
10.01	9.397876495E-2	6.963966785E-5	8.514366765E-4
10.02	8.406454802E-2	2.585030177E-4	-1.074129943E-3
10.03	7.542723434E-2	9.127685627E-4	-4.764619702E-3
10.040000000000001	6.621417852E-2	1.878600855E-3	-6.885397578E-3
10.05	6.342859278E-2	2.960711688E-3	-8.066066278E-3
10.06	6.107714098E-2	4.089941718E-3	-1.074768224E-2
10.07	6.490009883E-2	3.737561519E-3	-1.062193425E-2
10.08	7.117437796E-2	2.697002153E-3	-1.036393614E-2
10.09	7.584405920E-2	2.391942090E-3	-9.793341603E-3
10.1	7.871293849E-2	2.999578958E-3	-9.953537948E-3
10.11	7.732835660E-2	2.815466874E-3	-8.867683681E-3
10.120000000000001	7.020371876E-2	1.486919795E-3	-7.542567224E-3
10.13	5.476694709E-2	-1.123340353E-4	-7.277528595E-3
10.14	3.009655013E-2	-1.252846354E-3	-6.620916352E-3
10.15	-7.152264171E-3	-1.294663060E-3	-5.331429983E-3
10.16	-5.415711634E-2	-6.062451745E-4	-4.531156346E-3
10.17	-1.081581914E-1	-1.179448377E-5	-3.313555708E-3
10.18	-1.616403136E-1	-1.299641602E-3	-2.119076477E-3
10.19	-2.189040093E-1	-2.212336064E-3	-3.233112655E-4
10.200000000000001	-2.696655882E-1	-3.288717466E-3	1.818611345E-3
10.21	-3.117872186E-1	-3.895200156E-3	5.403555248E-3
10.22	-3.422999575E-1	-4.834611349E-3	8.072608627E-3
10.23	-3.582358793E-1	-5.219923967E-3	1.211228880E-2
10.24	-3.594400514E-1	-5.919702295E-3	1.205657956E-2
10.25	-3.501814660E-1	-5.250999921E-3	1.146671748E-2
10.26	-3.298740400E-1	-4.758970346E-3	1.159577248E-2
10.27	-3.036063018E-1	-5.659330169E-3	1.092862144E-2
10.28	-2.719446059E-1	-5.899956524E-3	1.047185431E-2
10.290000000000001	-2.397110635E-1	-5.112630862E-3	1.023655867E-2
10.3	-2.122782457E-1	-3.569816469E-3	9.574882465E-3
10.31	-1.885523585E-1	-1.778096165E-3	9.082070249E-3
10.32	-1.702659379E-1	-6.738807364E-4	8.592665427E-3
10.33	-1.566563706E-1	7.505774997E-4	7.793397123E-3
10.34	-1.446340413E-1	1.356981164E-4	8.403311623E-3
10.35	-1.351443143E-1	-7.217040208E-4	7.041383000E-3
10.36	-1.291211196E-1	-1.995102688E-4	6.901300762E-3
10.370000000000001	-1.231145349E-1	5.608884465E-4	4.182301500E-3
10.38	-1.151640185E-1	4.676591896E-4	2.837466020E-3
10.39	-1.059997810E-1	-7.812607206E-4	-3.721535180E-4
10.4	-9.715621941E-2	-2.593325075E-3	-4.217561061E-3
10.41	-9.006582185E-2	-2.453898170E-3	-7.750025849E-3
10.42	-8.459356185E-2	-1.477613179E-3	-9.363857681E-3
10.43	-8.008460716E-2	-9.903059844E-4	-9.581898655E-3
10.44	-7.579883604E-2	-9.738037207E-4	-9.390951668E-3
10.450000000000001	-7.224328993E-2	-1.595734493E-3	-9.644115669E-3
10.46	-7.001525574E-2	-2.252108907E-3	-9.991616243E-3
10.47	-6.645123149E-2	-2.170424824E-3	-7.541559694E-3
10.48	-5.893725429E-2	-1.689340578E-3	-7.147716835E-3
10.49	-4.573320500E-2	-9.019208598E-4	-7.210675464E-3
10.5	-2.612331327E-2	-9.716011084E-4	-5.938991993E-3
10.51	-1.223819369E-3	-2.086141072E-3	-5.641328480E-3
10.52	3.157252677E-2	-1.608775718E-3	-5.707414431E-3
10.53	6.665409449E-2	-7.060921254E-5	-6.275474880E-3
10.540000000000001	1.091997843E-1	3.266746332E-4	-5.116319644E-3
10.55	1.564471866E-1	8.776731272E-4	-3.944654148E-3
10.56	2.016501179E-1	1.588755117E-3	-2.757787412E-3
10.57	2.427771758E-1	3.350068450E-3	-8.577994082E-4
10.58	2.799424479E-1	5.123620302E-3	8.432944764E-4
10.59	3.124520359E-1	5.720979484E-3	2.673118529E-3
10.6	3.370868660E-1	4.857327347E-3	4.721811046E-3
10.61	3.524325744E-1	3.772723327E-3	5.926797553E-3
10.620000000000001	3.535340626E-1	4.696095512E-3	6.433178362E-3
10.63	3.440355363E-1	5.905588874E-3	6.725818415E-3
10.64	3.247762735E-1	4.569176796E-3	7.864178611E-3
10.65	2.971032678E-1	2.210995375E-3	5.858185779E-3
10.66	2.652132273E-1	6.614823335E-4	5.287804965E-3
10.67	2.267161175E-1	9.033595815E-4	6.063389823E-3
10.68	1.901689991E-1	1.342979285E-3	7.584573787E-3
10.69	1.546786194E-1	7.233443523E-4	7.169091387E-3
10.700000000000001	1.241517115E-1	-2.338314871E-4	7.115020760E-3
10.71	1.037768334E-1	-6.832664478E-4	7.067048737E-3
10.72	9.236585678E-2	-7.731796046E-4	6.222543719E-3
10.73	8.788042464E-2	-4.994659990E-4	4.054701579E-3
10.74	8.968416340E-2	1.734049614E-4	8.551027210E-4
10.75	9.717354817E-2	1.931876058E-4	-1.727648713E-3
10.76	1.062217727E-1	-9.127015568E-4	-3.100667504E-3
10.77	1.167239875E-1	-8.262959105E-4	-5.686778173E-3
10.78	1.235438523E-1	1.034145345E-3	-6.702383054E-3
10.790000000000001	1.228028241E-1	2.128492100E-3	-1.137467794E-2
10.8	1.180272804E-1	2.819997485E-3	-1.158696413E-2
10.81	1.079201750E-1	3.746133931E-3	-1.176859060E-2
10.82	9.352338969E-2	3.453424559E-3	-1.171535246E-2
10.83	7.443237005E-2	3.096483921E-3	-9.356151124E-3
10.84	5.266184508E-2	4.203286633E-3	-8.351995965E-3
10.85	2.981577153E-2	4.006831431E-3	-7.827877246E-3
10.86	6.747093966E-3	2.210037649E-3	-7.340480809E-3
10.870000000000001	-1.586997247E-2	4.995793752E-4	-6.966968125E-3
10.88	-3.917383911E-2	-5.355956721E-4	-6.559295202E-3
10.89	-6.387810862E-2	-6.705827645E-4	-5.851996595E-3
10.9	-9.118742341E-2	-1.250553758E-3	-4.755143761E-3
10.91	-1.207703484E-1	-3.315689994E-3	-3.584780385E-3
10.92	-1.518114268E-1	-3.375689111E-3	-2.154351892E-3
10.93	-1.885550284E-1	-3.274207339E-3	6.660728533E-4
10.94	-2.278844385E-1	-4.074440688E-3	3.847288132E-3
10.950000000000001	-2.651017062E-1	-3.313644080E-3	5.698898428E-3
10.96	-2.966386266E-1	-2.750771604E-3	7.119692180E-3
10.97	-3.225438176E-1	-3.911126330E-3	9.329114958E-3
10.98	-3.400819362E-1	-4.247220064E-3	1.104483082E-2
10.99	-3.472186561E-1	-4.838875475E-3	1.109092751E-2
11.0	-3.434515451E-1	-5.201765419E-3	1.127005919E-2
11.01	-3.277279740E-1	-4.898870014E-3	1.204876213E-2
11.02	-3.036351241E-1	-4.930438489E-3	1.101654074E-2
11.03	-2.701647455E-1	-5.546524735E-3	1.007629574E-2
11.040000000000001	-2.334739907E-1	-5.154203675E-3	9.761760006E-3
11.05	-1.981184944E-1	-2.546727658E-3	9.010437202E-3
11.06	-1.626442828E-1	3.990537278E-4	8.344466450E-3
11.07	-1.293450726E-1	8.287778630E-4	8.390528487E-3
11.08	-1.033908134E-1	1.264263855E-3	7.526437808E-3
11.09	-8.753872641E-2	9.836763504E-4	6.338755067E-3
11.1	-7.796897610E-2	2.536942395E-4	5.293688856E-3
11.11	-7.800586898E-2	2.716689185E-4	3.910482738E-3
11.120000000000001	-8.373023327E-2	-2.573047555E-4	3.085173539E-4
11.13	-9.132499297E-2	-2.758838248E-3	-2.089566768E-3
11.14	-1.007507846E-1	-3.497359979E-3	-4.304997984E-3
11.15	-1.120712549E-1	-3.292422686E-3	-6.378226610E-3
11.16	-1.214300126E-1	-2.470144573E-3	-7.755106529E-3
11.17	-1.262087719E-1	-1.775278405E-3	-8.136270759E-3
11.18	-1.245965973E-1	-1.457506621E-3	-8.096538480E-3
11.19	-1.169113987E-1	-9.443879871E-4	-8.113890658E-3
11.200000000000001	-1.022078504E-1	-5.481851384E-4	-7.848508920E-3
11.21	-8.184480471E-2	-6.692973041E-4	-7.078830573E-3
11.22	-5.452211596E-2	2.101450779E-6	-6.494224181E-3
11.23	-1.934145307E-2	-7.024422642E-4	-5.355103773E-3
11.24	1.934290183E-2	-2.779775390E-3	-6.506425134E-3
11.25	5.710115409E-2	-2.486807560E-3	-6.010876177E-3
11.26	9.556808503E-2	-1.826749879E-3	-7.139291226E-3
11.27	1.308387863E-1	-1.905387022E-3	-6.446230292E-3
11.28	1.627795400E-1	-1.027306905E-3	-5.046076876E-3
11.290000000000001	1.944984117E-1	3.843005913E-4	-4.133869429E-3
11.3	2.215708921E-1	1.981328808E-3	-2.104045573E-3
11.31	2.425955125E-1	3.497533983E-3	1.396631641E-5
11.32	2.601696073E-1	5.924397624E-3	2.317291388E-3
11.33	2.751739635E-1	7.016257694E-3	4.159219161E-3
11.34	2.880031396E-1	6.849029174E-3	5.104508933E-3
11.35	2.969461914E-1	6.257141984E-3	5.388204868E-3
11.36	3.016408009E-1	5.522463449E-3	5.384695264E-3
11.370000000000001	3.025841944E-1	6.169398739E-3	5.586789762E-3
11.38	2.984209394E-1	3.806238614E-3	6.036676167E-3
11.39	2.888299530E-1	1.474473427E-3	4.855512497E-3
11.4	2.724609483E-1	-1.063874471E-3	5.005214381E-3
11.41	2.496291451E-1	-1.572824381E-3	6.404341076E-3
11.42	2.210904699E-1	-2.093137699E-3	6.359981990E-3
11.43	1.890617944E-1	-9.358382680E-4	6.518619838E-3
11.44	1.546851719E-1	-1.437482058E-3	6.949257427E-3
11.450000000000001	1.217396534E-1	-1.841646868E-3	6.287927045E-3
11.46	9.391494469E-2	-4.906379528E-4	4.549852711E-3
11.47	7.357689451E-2	9.526188857E-4	2.699340428E-3
11.48	6.178027372E-2	1.259826206E-3	1.016535508E-3
11.49	5.827736112E-2	1.228029558E-3	-6.987286557E-4
11.5	6.487315485E-2	1.098553722E-3	-3.611040500E-3
11.51	7.751752291E-2	6.334930095E-4	-7.207228450E-3
11.52	9.327576448E-2	4.400007235E-4	-7.869157860E-3
11.53	1.073779574E-1	1.420166837E-3	-9.782988991E-3
11.540000000000001	1.216441136E-1	1.750991623E-3	-1.081090596E-2
11.55	1.300987098E-1	1.044890438E-3	-1.138549120E-2
11.56	1.302216939E-1	9.975901619E-4	-9.746896412E-3
11.57	1.171150752E-1	1.955548507E-3	-8.763958225E-3
11.58	9.524680992E-2	2.445781093E-3	-8.003182520E-3
11.59	6.336041094E-2	2.761546822E-3	-7.950905067E-3
11.6	2.436080511E-2	2.275254832E-3	-7.435522047E-3
11.61	-1.852592234E-2	7.000090491E-4	-7.251228136E-3
11.620000000000001	-6.183516703E-2	1.874392381E-4	-6.910701201E-3
11.63	-1.063702060E-1	-8.273728493E-4	-4.863872110E-3
11.64	-1.485198171E-1	-1.979306616E-3	-2.605794901E-3
11.65	-1.848330141E-1	-2.595546891E-3	-1.455427874E-3
11.66	-2.178218705E-1	-4.139471576E-3	-3.405298741E-4
11.67	-2.442356676E-1	-5.205897890E-3	1.519569562E-3
11.68	-2.643566072E-1	-4.762329051E-3	3.607409601E-3
11.69	-2.786388740E-1	-5.693496224E-3	6.348342055E-3
11.700000000000001	-2.874479843E-1	-5.853719716E-3	8.189029985E-3
11.71	-2.935299822E-1	-6.117976569E-3	1.126750788E-2
11.72	-2.940468859E-1	-4.542346317E-3	1.040469677E-2
11.73	-2.909884876E-1	-4.026884036E-3	1.055547216E-2
11.74	-2.836730020E-1	-3.290267551E-3	1.048798247E-2
11.75	-2.726083631E-1	-3.329525619E-3	9.153804835E-3
11.76	-2.586013601E-1	-3.754402733E-3	8.945195790E-3
11.77	-2.424374381E-1	-3.415902434E-3	9.483041141E-3
11.78	-2.236775427E-1	-2.319494315E-3	9.493772604E-3
11.790000000000001	-2.030306798E-1	-2.193274374E-3	1.002694719E-2
11.8	-1.828141825E-1	-1.022042594E-3	1.001827924E-2
11.81	-1.616899200E-1	-8.171584454E-5	1.130765757E-2
11.82	-1.396004399E-1	-1.724273930E-3	7.310541563E-3
11.83	-1.200241361E-1	-1.297843831E-3	4.556993478E-3
11.84	-1.045056474E-1	-3.538273880E-4	2.727115712E-3
11.85	-9.206643923E-2	6.346513393E-4	8.620123256E-4
11.86	-8.315562188E-2	6.750496695E-4	-1.680831761E-3
11.870000000000001	-7.811006560E-2	1.798296597E-4	-3.596412942E-3
11.88	-7.757160541E-2	-8.842666688E-4	-5.197129171E-3
11.89	-8.080338562E-2	-1.872835080E-3	-7.011945665E-3
11.9	-8.699357807E-2	-2.076530548E-3	-8.098026254E-3
11.91	-9.357069604E-2	-2.554768860E-3	-8.164986207E-3
11.92	-9.918076302E-2	-4.149146343E-3	-8.373752729E-3
11.93	-1.028509804E-1	-3.962237500E-3	-7.602655079E-3
11.94	-1.003343241E-1	-3.325211690E-3	-7.574470184E-3
11.950000000000001	-9.077016766E-2	-2.396460510E-3	-7.450871123E-3
11.96	-7.141105957E-2	-1.520533750E-3	-6.979200055E-3
11.97	-4.410120688E-2	-8.033493761E-4	-7.083354351E-3
11.98	-6.673884980E-3	-3.057034898E-4	-6.809099915E-3
11.99	3.618477423E-2	5.536548492E-4	-6.724399946E-3
12.0	8.409101924E-2	1.441795454E-3	-7.002810470E-3
12.01	1.364307351E-1	1.004482964E-3	-6.165276638E-3
12.02	1.855394580E-1	-4.667392038E-4	-4.867867359E-3
12.030000000000001	2.303376250E-1	7.917497310E-5	-3.554593708E-3
12.040000000000001	2.670835216E-1	2.514890504E-5	-1.363719964E-3
12.05	2.913606256E-1	2.193651017E-3	7.949707240E-4
12.06	3.069522498E-1	3.371899243E-3	2.094183969E-3
12.07	3.133033390E-1	3.526522205E-3	2.885944830E-3
12.08	3.090887862E-1	4.000096143E-3	3.983993740E-3
12.09	2.982507752E-1	5.115174717E-3	5.090241304E-3
12.1	2.806695122E-1	5.893005331E-3	5.333059927E-3
12.11	2.592522149E-1	6.070893474E-3	5.219972945E-3
12.120000000000001	2.391524809E-1	6.390706714E-3	5.934768473E-3
12.13	2.222852103E-1	3.908902012E-3	6.128213963E-3
12.14	2.070712176E-1	1.531978873E-3	5.969598509E-3
12.15	1.925065994E-1	2.865240330E-4	5.722089473E-3
12.16	1.809653871E-1	-1.380415328E-3	5.228342333E-3
12.17	1.689457287E-1	-1.928670173E-3	5.692007194E-3
12.18	1.584468385E-1	-1.725034272E-3	6.148476656E-3
12.19	1.467868829E-1	-2.369177262E-3	5.984134649E-3
12.200000000000001	1.359009239E-1	-2.303023074E-3	4.090583853E-3
12.21	1.224523792E-1	-8.875151165E-4	1.714951010E-3
12.22	1.105864489E-1	3.222759595E-4	-1.180057593E-4
12.23	1.005357947E-1	9.229709543E-4	-2.447693742E-3
12.24	9.189318547E-2	1.594198638E-3	-5.279304458E-3
12.25	8.623972990E-2	2.449549526E-3	-7.432768122E-3
12.26	8.302013241E-2	2.861757188E-3	-8.471854172E-3
12.27	8.185890978E-2	2.621150655E-3	-8.382963359E-3
12.280000000000001	8.391016047E-2	2.252152450E-3	-9.542047169E-3
12.290000000000001	8.594703107E-2	1.831230913E-3	-9.169460518E-3
12.3	8.498749463E-2	1.739178422E-3	-8.333358848E-3
12.31	7.908809144E-2	1.428899781E-3	-8.480822415E-3
12.32	6.787582563E-2	2.191313066E-3	-8.702236839E-3
12.33	5.012178757E-2	2.321589870E-3	-8.140073366E-3
12.34	2.710171997E-2	1.235449655E-3	-6.675057643E-3
12.35	-4.193908070E-3	-1.203781461E-4	-5.558698183E-3
12.36	-4.322448035E-2	-1.078877494E-3	-5.705794892E-3
12.370000000000001	-8.653673293E-2	-1.351745293E-3	-4.910070069E-3
12.38	-1.306243653E-1	-1.232654721E-3	-3.808176721E-3
12.39	-1.742825865E-1	-2.317857177E-3	-1.680486681E-3
12.4	-2.175442855E-1	-4.165984421E-3	4.199758795E-4
12.41	-2.539615103E-1	-4.567491375E-3	2.343786571E-3
12.42	-2.850379651E-1	-4.639425912E-3	5.803027062E-3
12.43	-3.080358515E-1	-5.143003346E-3	7.888811073E-3
12.44	-3.202946664E-1	-4.824529502E-3	8.973976424E-3
12.450000000000001	-3.221128480E-1	-4.665367393E-3	9.768267822E-3
12.46	-3.151073352E-1	-5.014327533E-3	1.055338797E-2
12.47	-3.013675127E-1	-4.539831159E-3	9.839576354E-3
12.48	-2.803875020E-1	-3.964041757E-3	8.923806878E-3
12.49	-2.547999561E-1	-3.609928763E-3	8.911671610E-3
12.5	-2.260658061E-1	-2.893016214E-3	8.933497986E-3
12.51	-1.971616900E-1	-2.119040004E-3	8.503521251E-3
12.52	-1.717463225E-1	-2.065798294E-3	9.169337543E-3
12.530000000000001	-1.528134159E-1	-9.406127516E-4	9.064252448E-3
12.540000000000001	-1.373051441E-1	1.033751683E-4	9.338966406E-3
12.55	-1.263761794E-1	-4.110768140E-4	8.815137943E-3
12.56	-1.208563395E-1	-1.976008080E-3	7.273901317E-3
12.57	-1.201765797E-1	-1.336563267E-3	5.195124764E-3
12.58	-1.222848837E-1	-1.039190604E-3	2.924649924E-3
12.59	-1.262376626E-1	-8.659613719E-4	7.009976752E-4
12.6	-1.270030250E-1	-7.478037562E-4	-1.261614490E-3
12.61	-1.253691044E-1	-1.435188025E-3	-3.586730682E-3
12.620000000000001	-1.238775098E-1	-1.814061677E-3	-6.253611240E-3
12.63	-1.183191865E-1	-1.225115254E-3	-7.364019819E-3
12.64	-1.085100055E-1	-1.195192920E-3	-7.658841429E-3
12.65	-9.601743985E-2	-1.858647256E-3	-8.189772525E-3
12.66	-8.206451042E-2	-1.879896338E-3	-8.247714119E-3
12.67	-6.715999186E-2	-3.587821839E-3	-7.681674309E-3
12.68	-5.283131678E-2	-4.007247947E-3	-7.132398274E-3
12.69	-3.534374854E-2	-3.482306781E-3	-6.850228125E-3
12.700000000000001	-1.815798705E-2	-2.553071888E-3	-7.384388519E-3
12.71	2.107216024E-3	-2.313066005E-3	-7.854114266E-3
12.72	2.558854676E-2	-1.239847624E-3	-7.791500088E-3
12.73	5.323997086E-2	1.752199101E-4	-6.963088716E-3
12.74	8.389272191E-2	8.999745456E-4	-5.837371952E-3
12.75	1.191625529E-1	1.164819602E-3	-4.812769700E-3
12.76	1.590468790E-1	1.818446389E-3	-4.017750994E-3
12.77	1.997408462E-1	2.620503582E-3	-3.155004674E-3
12.780000000000001	2.374168898E-1	3.348887437E-3	-6.044350203E-4
12.790000000000001	2.697061853E-1	3.989108314E-3	1.485242654E-3
12.8	2.975580438E-1	4.534995910E-3	2.966923033E-3
12.81	3.163220219E-1	3.659943379E-3	3.639543865E-3
12.82	3.225858338E-1	3.408357682E-3	5.128926881E-3
12.83	3.199484777E-1	2.506161914E-3	4.302905929E-3
12.84	3.059146297E-1	3.684099690E-3	5.429920622E-3
12.85	2.858920123E-1	2.652383850E-3	5.226662637E-3
12.86	2.576363946E-1	1.602807983E-3	4.905152286E-3
12.870000000000001	2.274095260E-1	1.462009500E-3	5.724117981E-3
12.88	1.967289549E-1	9.381399562E-4	6.293488476E-3
12.89	1.669047229E-1	3.472329678E-4	6.211317192E-3
12.9	1.419213359E-1	3.829652304E-5	6.087553048E-3
12.91	1.241791324E-1	-7.190237257E-4	6.034076764E-3
12.92	1.120423025E-1	-1.363117623E-3	5.548534204E-3
12.93	1.047335145E-1	-1.817800604E-3	4.288578505E-3
12.94	1.050117501E-1	-7.705268897E-4	2.613739903E-3
12.950000000000001	1.069567664E-1	2.724033791E-4	-4.906162395E-4
12.96	1.135532550E-1	9.525797144E-4	-9.995094798E-4
12.97	1.190453750E-1	6.759972362E-4	-4.223347593E-3
12.98	1.241385533E-1	7.400121839E-4	-5.896415626E-3
12.99	1.274645994E-1	2.352284338E-3	-7.919332555E-3
13.0	1.257329843E-1	2.878386706E-3	-8.649292251E-3
13.01	1.204462363E-1	3.277700039E-3	-9.234323183E-3
13.02	1.127480960E-1	3.573195715E-3	-9.680191988E-3
13.030000000000001	9.942444044E-2	3.169432308E-3	-9.747288298E-3
13.040000000000001	8.122230982E-2	2.563831930E-3	-9.239252767E-3
13.05	5.860193885E-2	2.842684260E-3	-8.184648501E-3
13.06	3.237737850E-2	3.160830722E-3	-7.595317986E-3
13.07	3.654082050E-3	2.028628833E-3	-7.464886811E-3
13.08	-2.651462394E-2	4.641979827E-4	-7.138119679E-3
13.09	-5.741033148E-2	-9.031343607E-4	-6.656231424E-3
13.1	-8.989926768E-2	-1.618944414E-3	-4.993026750E-3
13.11	-1.199216314E-1	-1.863958798E-3	-3.672372486E-3
13.120000000000001	-1.504489118E-1	-2.436325174E-3	-2.264060371E-3
13.13	-1.790376422E-1	-3.620612955E-3	-5.912465617E-5
13.14	-2.058955906E-1	-4.332154489E-3	1.800297086E-3
13.15	-2.301803055E-1	-4.558436394E-3	3.612624453E-3
13.16	-2.517215660E-1	-4.258533418E-3	5.468235234E-3
13.17	-2.696794066E-1	-3.926428911E-3	7.223770273E-3
13.18	-2.843030802E-1	-4.414327880E-3	8.606761704E-3
13.19	-2.931717930E-1	-4.516928568E-3	8.443958264E-3
13.200000000000001	-2.984135085E-1	-4.824934789E-3	1.008682993E-2
13.21	-2.961597868E-1	-3.239188455E-3	8.769834850E-3
13.22	-2.854666302E-1	-3.336757828E-3	9.840619976E-3
13.23	-2.684981472E-1	-4.064573385E-3	9.518009639E-3
13.24	-2.455001455E-1	-3.998195468E-3	8.624524317E-3
13.25	-2.186692276E-1	-3.234923485E-3	9.777164569E-3
13.26	-1.894361868E-1	-2.158912887E-3	9.203673505E-3
13.27	-1.606271733E-1	-1.455753843E-3	8.308777167E-3
13.280000000000001	-1.336898194E-1	-7.219126643E-4	7.453529280E-3
13.290000000000001	-1.102996839E-1	-4.804853143E-4	6.850983064E-3
13.3	-9.376297292E-2	-6.962354071E-4	5.889997414E-3
13.31	-8.553646045E-2	-1.566067519E-4	4.090306335E-3
13.32	-8.628734544E-2	1.808083283E-4	2.410045606E-3
13.33	-9.291964275E-2	9.022848298E-6	1.419146463E-4
13.34	-1.034715294E-1	-1.029244745E-3	-2.216201126E-3
13.35	-1.167920732E-1	-2.532018495E-3	-4.033132199E-3
13.36	-1.281184264E-1	-2.263311408E-3	-6.215058949E-3
13.370000000000001	-1.363650879E-1	-3.155148044E-3	-7.061729993E-3
13.38	-1.405429257E-1	-2.309594752E-3	-6.882916482E-3
13.39	-1.341542973E-1	-2.585173534E-3	-5.931342026E-3
13.4	-1.201625135E-1	-1.574757994E-3	-6.480344963E-3
13.41	-9.648502292E-2	-1.696322449E-3	-7.440558894E-3
13.42	-6.779853178E-2	-1.383727728E-3	-7.331285676E-3
13.43	-3.421256656E-2	-1.402880653E-3	-6.699327104E-3
13.44	1.103335723E-3	-1.498503168E-3	-7.104806067E-3
13.450000000000001	3.811374872E-2	-1.460709096E-3	-7.358880899E-3
13.46	7.511854601E-2	-1.373654268E-3	-7.080591350E-3
13.47	1.098542289E-1	-1.155884247E-3	-6.630622060E-3
13.48	1.422058114E-1	-4.903783966E-4	-6.007404979E-3
13.49	1.688699830E-1	1.681466217E-3	-5.077407928E-3
13.5	1.964230447E-1	1.278129780E-3	-2.824029296E-3
13.51	2.193053241E-1	2.283127233E-3	-6.715028147E-4
13.52	2.369591951E-1	3.393157054E-3	9.027242723E-4
13.530000000000001	2.506279997E-1	4.279561974E-3	1.461828563E-3
13.540000000000001	2.630000245E-1	4.791602001E-3	3.962334662E-3
13.55	2.704797337E-1	5.268087285E-3	4.370808334E-3
13.56	2.747938222E-1	4.414104863E-3	4.351930060E-3
13.57	2.753362941E-1	4.079453136E-3	4.030914534E-3
13.58	2.700224384E-1	3.512495083E-3	3.963768510E-3
13.59	2.606588942E-1	2.990062632E-3	4.714998979E-3
13.6	2.469721868E-1	2.393840408E-3	5.478191035E-3
13.61	2.302349203E-1	1.021811557E-3	5.880948364E-3
13.620000000000001	2.112553491E-1	4.472908038E-6	7.054176735E-3
13.63	1.890645512E-1	-1.342199535E-3	7.496096354E-3
13.64	1.675248352E-1	-1.986318207E-3	6.461707128E-3
13.65	1.457840709E-1	-1.712398787E-3	6.265908598E-3
13.66	1.268138475E-1	-6.923028451E-4	5.735556460E-3
13.67	1.104920139E-1	-3.501473175E-4	3.330205095E-3
13.68	1.007538609E-1	-1.401343569E-4	3.016126964E-3
13.69	9.411184639E-2	1.468557690E-3	5.188328195E-4
13.700000000000001	9.058151112E-2	2.065535281E-3	-3.139807811E-3
13.71	9.236088239E-2	1.515677078E-3	-4.204503057E-3
13.72	9.724236888E-2	1.905685813E-3	-6.436835792E-3
13.73	1.043824145E-1	2.172195195E-3	-8.072788514E-3
13.74	1.116664571E-1	2.104434773E-3	-8.675025358E-3
13.75	1.166287148E-1	2.645615279E-3	-9.143610133E-3
13.76	1.176181438E-1	2.369846614E-3	-9.131374268E-3
13.77	1.127850654E-1	1.361804855E-3	-9.082189080E-3
13.780000000000001	1.009387464E-1	1.686763537E-3	-8.752808111E-3
13.790000000000001	7.980551220E-2	1.460787402E-3	-7.733083648E-3
13.8	5.222811039E-2	1.971397995E-3	-8.265665898E-3
13.81	1.580917482E-2	1.943912087E-3	-6.518366473E-3
13.82	-2.283167507E-2	7.052100045E-4	-5.825565718E-3
13.83	-6.594483931E-2	-1.180175804E-3	-6.937085774E-3
13.84	-1.129742731E-1	-2.657613902E-4	-4.718830123E-3
13.85	-1.557895147E-1	-1.559656839E-3	-2.044722265E-3
13.86	-1.937887632E-1	-1.964973166E-3	-1.398583867E-3
13.870000000000001	-2.252224312E-1	-2.706007234E-3	4.449996354E-4
13.88	-2.486248789E-1	-3.872194282E-3	2.557364636E-3
13.89	-2.652588445E-1	-4.372432728E-3	3.804521346E-3
13.9	-2.724534557E-1	-4.394715396E-3	6.051126432E-3
13.91	-2.728849389E-1	-5.003721666E-3	8.499200926E-3
13.92	-2.695652786E-1	-4.973632905E-3	8.668050549E-3
13.93	-2.621714272E-1	-4.485671449E-3	9.213848599E-3
13.94	-2.524722779E-1	-4.905929205E-3	8.997482459E-3
13.950000000000001	-2.415883841E-1	-3.441221713E-3	8.322700855E-3
13.96	-2.312983767E-1	-4.347486318E-3	7.592223770E-3
13.97	-2.223632860E-1	-3.519756393E-3	9.301816296E-3
13.98	-2.098325201E-1	-3.051482998E-3	8.801401470E-3
13.99	-1.989272842E-1	-8.952720074E-4	9.160257018E-3
14.0	-1.877666839E-1	-8.917914281E-4	9.247571942E-3
14.01	-1.755593570E-1	-6.073714717E-4	8.711275192E-3
14.02	-1.611016198E-1	-7.086137020E-6	7.724187228E-3
14.030000000000001	-1.449902638E-1	-8.910821427E-4	6.510587072E-3
14.040000000000001	-1.311136147E-1	-6.124075181E-4	4.983719380E-3
14.05	-1.191607486E-1	-3.234762847E-4	3.000824141E-3
14.06	-1.083400099E-1	-7.595943547E-4	4.812444119E-4
14.07	-1.007572294E-1	-8.037551468E-4	-1.985265230E-3
14.08	-9.669584800E-2	-1.074004567E-3	-3.493593615E-3
14.09	-9.569207640E-2	-2.541028221E-3	-4.760331865E-3
14.1	-9.838589413E-2	-2.208811592E-3	-6.292052014E-3
14.11	-1.013896635E-1	-1.481561736E-3	-5.653791465E-3
14.120000000000001	-1.068273140E-1	-1.086414206E-3	-7.183594546E-3
14.13	-1.059002348E-1	-1.947278641E-3	-7.058679249E-3
14.14	-1.017023114E-1	-2.386744194E-3	-7.049123686E-3
14.15	-8.992989564E-2	-1.832911467E-3	-7.490648609E-3
14.16	-7.109822528E-2	-1.299745770E-4	-6.235484524E-3
14.17	-4.664115352E-2	5.418979427E-4	-5.801313795E-3
14.18	-1.574516882E-2	7.066346803E-5	-6.694395373E-3
14.19	2.128865152E-2	-5.210336053E-4	-6.967217487E-3
14.200000000000001	6.264224845E-2	-1.165552025E-4	-7.053771725E-3
14.21	1.052649778E-1	-7.082714267E-6	-6.632462371E-3
14.22	1.473102651E-1	-2.975729289E-4	-5.301674184E-3
14.23	1.867409163E-1	6.427434678E-4	-4.020719290E-3
14.24	2.189956157E-1	1.072332207E-3	-2.026305175E-3
14.25	2.488100035E-1	1.417811094E-3	-1.095876711E-3
14.26	2.695281356E-1	2.579948086E-3	2.714150286E-5
14.27	2.810109165E-1	3.800897200E-3	2.158239237E-3
14.280000000000001	2.847767083E-1	4.567100873E-3	3.254923198E-3
14.290000000000001	2.820992374E-1	4.077838676E-3	4.097640400E-3
14.3	2.724739904E-1	3.663048922E-3	4.492270793E-3
14.31	2.584880253E-1	3.621589255E-3	4.931704207E-3
14.32	2.406779336E-1	3.296550485E-3	5.844973259E-3
14.33	2.213679289E-1	2.758560950E-3	6.422782142E-3
14.34	2.028758379E-1	1.726082449E-3	6.073106202E-3
14.35	1.836456661E-1	5.110062255E-4	5.826697439E-3
14.36	1.677017458E-1	5.726414747E-4	6.195646100E-3
14.370000000000001	1.564262554E-1	-1.029234018E-4	5.827552884E-3
14.38	1.475461296E-1	-6.572821363E-4	6.499231670E-3
14.39	1.419870706E-1	-1.137066493E-3	6.397573330E-3
14.4	1.388659059E-1	-2.000961054E-3	5.469438066E-3
14.41	1.368589976E-1	-1.494789434E-3	4.081229259E-3
14.42	1.339680010E-1	-5.908132540E-4	1.572574683E-3
14.43	1.307924362E-1	-1.305844728E-4	-1.051861183E-3
14.44	1.272806298E-1	4.792014360E-4	-3.345073901E-3
14.450000000000001	1.221734678E-1	1.576957685E-3	-5.774129372E-3
14.46	1.159580911E-1	2.251032740E-3	-6.758143943E-3
14.47	1.087130754E-1	2.701282472E-3	-7.068591363E-3
14.48	9.976766209E-2	3.031049044E-3	-8.799991963E-3
14.49	8.977628986E-2	3.527613087E-3	-8.294991427E-3
14.5	8.119600877E-2	2.970397485E-3	-7.656591282E-3
14.51	7.133145113E-2	1.500703600E-3	-8.161272088E-3
14.52	5.984471442E-2	1.596106924E-3	-8.483694675E-3
14.530000000000001	4.526774805E-2	9.726910666E-4	-7.698499348E-3
14.540000000000001	2.638033503E-2	4.574252841E-4	-7.784740310E-3
14.55	3.957512898E-3	-7.312775953E-4	-7.550376169E-3
14.56	-2.472061715E-2	-1.342674113E-3	-6.241746261E-3
14.57	-5.817369026E-2	-1.381404211E-3	-5.554297137E-3
14.58	-9.602258926E-2	-2.015700785E-3	-3.940470923E-3
14.59	-1.354158792E-1	-2.319960783E-3	-2.427334124E-3
14.6	-1.758039312E-1	-2.151969254E-3	-4.864452739E-4
14.61	-2.127288241E-1	-2.776650893E-3	1.604150633E-3
14.620000000000001	-2.442442414E-1	-3.738083662E-3	3.395855620E-3
14.63	-2.734120628E-1	-3.658154699E-3	5.753649734E-3
14.64	-2.913354130E-1	-3.747892421E-3	7.295617191E-3
14.65	-2.976304890E-1	-4.599274770E-3	7.136639851E-3
14.66	-2.956242825E-1	-4.146279319E-3	8.636438378E-3
14.67	-2.839040404E-1	-3.566034716E-3	8.552369409E-3
14.68	-2.665779777E-1	-5.140184723E-3	9.631765697E-3
14.69	-2.441627352E-1	-2.908980883E-3	8.948743704E-3
14.700000000000001	-2.205314962E-1	-4.596685625E-3	8.839013213E-3
14.71	-1.972046915E-1	-4.899825008E-3	8.819078786E-3
14.72	-1.753306698E-1	-3.222029098E-3	8.924481356E-3
14.73	-1.577665278E-1	-1.503481605E-3	9.442071614E-3
14.74	-1.451935603E-1	-3.445926426E-4	8.644141022E-3
14.75	-1.369302217E-1	-7.019894496E-5	8.061941433E-3
14.76	-1.312709474E-1	-3.221338625E-5	7.533093234E-3
14.77	-1.293404970E-1	-6.644952688E-4	6.057938105E-3
14.780000000000001	-1.310034493E-1	-2.214860755E-3	4.631411556E-3
14.790000000000001	-1.328239091E-1	-1.055645773E-3	2.713749815E-3
14.8	-1.355977130E-1	-1.079329626E-3	4.234579763E-4
14.81	-1.362429813E-1	-1.131569292E-3	-1.633236003E-3
14.82	-1.350739813E-1	-2.593474124E-3	-3.846057178E-3
14.83	-1.326080390E-1	-3.339744471E-3	-4.653989460E-3
14.84	-1.250048523E-1	-1.889906128E-3	-4.765283662E-3
14.85	-1.166117911E-1	-2.460858059E-3	-6.160967508E-3
14.86	-1.052267974E-1	-2.202657005E-3	-6.832973921E-3
14.870000000000001	-8.997827958E-2	-1.285565470E-3	-6.850934126E-3
14.88	-7.133106917E-2	-8.003590710E-4	-6.715372652E-3
14.89	-5.171231637E-2	-1.778259940E-3	-7.328483256E-3
14.9	-2.879911423E-2	-1.566991877E-3	-7.418279819E-3
14.91	-3.004856960E-3	-9.202065725E-4	-6.826028601E-3
14.92	2.442759383E-2	-1.463537398E-3	-7.074902150E-3
14.93	5.292038578E-2	-1.770548384E-3	-8.182871909E-3
14.94	8.222243368E-2	-1.121293541E-3	-7.197228427E-3
14.950000000000001	1.125233871E-1	-6.163137041E-4	-5.448034498E-3
14.96	1.415630846E-1	6.810325001E-4	-4.539150755E-3
14.97	1.723439907E-1	1.429492882E-3	-2.340710751E-3
14.98	1.991622500E-1	1.738835759E-3	-4.363647959E-4
14.99	2.250117939E-1	2.750013420E-3	3.049270111E-5
15.0	2.462566113E-1	3.894987344E-3	-1.800458390E-4
15.01	2.629533413E-1	5.050061498E-3	1.672822921E-3
15.02	2.754041156E-1	5.172107857E-3	3.196170763E-3
15.030000000000001	2.809166484E-1	4.140897849E-3	3.695136079E-3
15.040000000000001	2.795308677E-1	2.692696330E-3	3.891628215E-3
15.05	2.700213336E-1	2.369487091E-3	4.666636457E-3
15.06	2.551433800E-1	2.112344492E-3	5.036835569E-3
15.07	2.349931852E-1	7.698886322E-4	5.283412129E-3
15.08	2.104453338E-1	-3.549817041E-4	6.823293250E-3
15.09	1.860678075E-1	-4.864574519E-4	7.509778509E-3
15.1	1.604676455E-1	-1.004694918E-3	7.991747401E-3
15.11	1.379292399E-1	-9.696197926E-4	5.596076782E-3
15.120000000000001	1.215644768E-1	3.911426472E-4	6.732704165E-3
15.13	1.113132409E-1	-3.747658059E-4	5.480135296E-3
15.14	1.077337994E-1	-4.094392244E-4	3.422397040E-3
15.15	1.086590020E-1	3.041195430E-4	2.193998702E-3
15.16	1.139264552E-1	6.059033877E-4	2.390114315E-4
15.17	1.232874311E-1	1.406894323E-3	-1.965989490E-3
15.18	1.329087957E-1	1.936186464E-3	-3.183539775E-3
15.19	1.399971241E-1	7.869025393E-4	-5.309430180E-3
15.200000000000001	1.426531918E-1	9.110793794E-4	-7.131704354E-3
15.21	1.405957109E-1	1.694555965E-3	-7.547983925E-3
15.22	1.321589182E-1	1.911725160E-3	-7.048524367E-3
15.23	1.178824008E-1	2.695754310E-3	-6.527197516E-3
15.24	9.786695010E-2	2.745086090E-3	-7.013884133E-3
15.25	7.344617311E-2	2.138312636E-3	-8.501923446E-3
15.26	4.561913116E-2	2.912213834E-3	-8.330127934E-3
15.27	1.555369603E-2	2.008694183E-3	-7.494892031E-3
15.280000000000001	-1.517818500E-2	1.913133897E-3	-7.056867268E-3
15.290000000000001	-4.612635060E-2	-1.688928781E-4	-6.193975857E-3
15.3	-7.538963726E-2	-1.098729007E-3	-6.723711116E-3
15.31	-1.037284732E-1	-2.468017081E-3	-5.978703923E-3
15.32	-1.309948354E-1	-2.865452909E-3	-4.546263696E-3
15.33	-1.571361563E-1	-2.281608893E-3	-2.991685269E-3
15.34	-1.815657197E-1	-3.152832286E-3	-2.229761821E-4
15.35	-2.030713687E-1	-3.392788097E-3	2.018582842E-3
15.36	-2.221517480E-1	-3.286697433E-3	3.664039296E-3
15.370000000000001	-2.387443076E-1	-3.943918948E-3	5.212972748E-3
15.38	-2.530952350E-1	-4.018654348E-3	5.989947911E-3
15.39	-2.634252563E-1	-3.671920077E-3	6.485131371E-3
15.4	-2.668599374E-1	-3.212879194E-3	8.279380131E-3
15.41	-2.660339230E-1	-4.163749887E-3	8.884023458E-3
15.42	-2.585777385E-1	-3.420324414E-3	8.902213045E-3
15.43	-2.462177611E-1	-3.909603631E-3	1.008690832E-2
15.44	-2.311984105E-1	-3.306840373E-3	9.145861597E-3
15.450000000000001	-2.133241882E-1	-2.868494273E-3	1.024381600E-2
15.46	-1.918497152E-1	-2.645750089E-3	1.060337916E-2
15.47	-1.708910697E-1	-2.011274314E-3	9.876014908E-3
15.48	-1.516296379E-1	-9.492798926E-4	8.216359567E-3
15.49	-1.357972424E-1	-1.017317588E-3	7.101337899E-3
15.5	-1.231314673E-1	-7.995348898E-4	6.025141345E-3
15.51	-1.138483747E-1	-3.718665626E-4	4.726418992E-3
15.52	-1.101120064E-1	-7.226823492E-4	3.435425053E-3
15.530000000000001	-1.101946882E-1	-1.099402989E-3	1.934638504E-3
15.540000000000001	-1.137394147E-1	-1.239807199E-3	2.718162567E-4
15.55	-1.196642085E-1	-1.675731034E-3	-2.156465424E-3
15.56	-1.251757161E-1	-3.014902486E-3	-3.024140943E-3
15.57	-1.296787854E-1	-3.149762592E-3	-4.354639625E-3
15.58	-1.328062721E-1	-2.887720726E-3	-5.939160969E-3
15.59	-1.304887871E-1	-1.565286542E-3	-5.856934950E-3
15.6	-1.239398682E-1	-1.861207804E-3	-5.932188636E-3
15.610000000000001	-1.091373590E-1	-1.293949841E-3	-5.984835970E-3
15.620000000000001	-8.772940623E-2	-2.056650975E-3	-6.256945377E-3
15.63	-6.068932239E-2	-2.005144642E-3	-6.941282375E-3
15.64	-2.957409442E-2	-1.065524545E-3	-7.406909764E-3
15.65	7.439623529E-3	-8.289192821E-4	-7.417074351E-3
15.66	4.592002675E-2	-4.672605448E-4	-6.791424050E-3
15.67	8.350823097E-2	1.000891583E-5	-6.013089134E-3
15.68	1.215058624E-1	-4.370741642E-4	-6.028640456E-3
15.69	1.537541223E-1	-6.728624707E-4	-5.614090130E-3
15.700000000000001	1.819417431E-1	8.926076106E-4	-4.145345537E-3
15.71	2.061575775E-1	1.067521324E-3	-3.320390834E-3
15.72	2.219592066E-1	2.987242352E-3	-1.202476715E-3
15.73	2.327710919E-1	3.186848648E-3	-7.332436106E-4
15.74	2.394606684E-1	4.408486450E-3	1.924487631E-3
15.75	2.414184081E-1	5.304775430E-3	3.605179619E-3
15.76	2.416816436E-1	5.621887963E-3	3.660099013E-3
15.77	2.399232947E-1	5.178154478E-3	4.110991525E-3
15.780000000000001	2.365979979E-1	3.889768305E-3	4.868240551E-3
15.790000000000001	2.323111609E-1	3.078911790E-3	4.933944854E-3
15.8	2.250656270E-1	2.496037312E-3	5.038629509E-3
15.81	2.159625600E-1	1.470142070E-3	5.410670628E-3
15.82	2.060007821E-1	-3.352382519E-5	5.728931706E-3
15.83	1.943607905E-1	-1.187427242E-3	5.656434249E-3
15.84	1.794066472E-1	-7.845155031E-4	5.005145405E-3
15.85	1.629629495E-1	-1.244093770E-3	6.840849704E-3
15.860000000000001	1.479930243E-1	-8.677402516E-5	5.602978393E-3
15.870000000000001	1.328951572E-1	-1.030869824E-3	5.356232780E-3
15.88	1.224682979E-1	-1.271154843E-3	2.611864422E-3
15.89	1.134531764E-1	5.012289127E-4	1.794261560E-3
15.9	1.081488068E-1	1.387901360E-3	-5.539471307E-4
15.91	1.070710090E-1	1.967491281E-3	-2.292877418E-3
15.92	1.093225151E-1	2.254958805E-3	-3.565682351E-3
15.93	1.137800343E-1	2.911467465E-3	-5.171318447E-3
15.94	1.171952152E-1	3.040739558E-3	-6.816984455E-3
15.950000000000001	1.198734800E-1	2.813219463E-3	-7.850910638E-3
15.96	1.200274332E-1	2.920327657E-3	-7.786638644E-3
15.97	1.139129496E-1	2.894892070E-3	-7.756361441E-3
15.98	1.028824580E-1	2.160384898E-3	-8.742767599E-3
15.99	8.548127055E-2	1.472404772E-3	-7.386947120E-3
16.0	5.974620091E-2	1.977808427E-3	-7.732134071E-3
16.01	2.822698493E-2	8.670271252E-4	-8.575930567E-3
16.02	-6.469769532E-3	6.639706657E-4	-7.274098254E-3
16.03	-4.384731431E-2	-1.303715371E-3	-5.951654103E-3
16.04	-8.425894120E-2	-1.110188876E-3	-5.650854621E-3
16.05	-1.220529283E-1	-1.640242733E-3	-4.218078386E-3
16.06	-1.576379665E-1	-1.303607485E-3	-2.342625707E-3
16.07	-1.883011175E-1	-2.029884285E-3	-1.101593273E-3
16.080000000000002	-2.138233684E-1	-2.644359468E-3	1.150688015E-3
16.09	-2.341358069E-1	-3.011847741E-3	3.238427961E-3
16.1	-2.467667495E-1	-3.404324211E-3	4.145793351E-3
16.11	-2.535041036E-1	-3.605285623E-3	5.520712520E-3
16.12	-2.544555537E-1	-3.823000601E-3	6.424535250E-3
16.13	-2.507742518E-1	-3.561161819E-3	6.938226083E-3
16.14	-2.423603314E-1	-5.127243449E-3	7.521065780E-3
16.15	-2.324037377E-1	-3.899266693E-3	8.004728853E-3
16.16	-2.195781318E-1	-4.227758424E-3	8.092365498E-3
16.17	-2.071170824E-1	-4.463678994E-3	8.215024319E-3
16.18	-1.957067438E-1	-3.184601031E-3	8.094633434E-3
16.19	-1.836500225E-1	-2.141975707E-3	9.641269528E-3
16.2	-1.738318106E-1	-1.773411234E-3	1.027656358E-2
16.21	-1.665934704E-1	-5.342002446E-4	9.215170943E-3
16.22	-1.596273110E-1	-4.578082400E-4	9.414025156E-3
16.23	-1.531854857E-1	-7.411554865E-4	7.723154616E-3
16.240000000000002	-1.477746396E-1	-5.019231076E-4	5.492261245E-3
16.25	-1.429855132E-1	-1.068406244E-3	4.230211907E-3
16.26	-1.374858240E-1	-1.630144491E-3	1.585305983E-3
16.27	-1.319861702E-1	-7.677595601E-4	-9.094394834E-4
16.28	-1.273755764E-1	-1.273642139E-3	-2.512968043E-3
16.29	-1.223347551E-1	-2.805315257E-3	-1.467149501E-3
16.3	-1.160408374E-1	-3.311548693E-3	-3.942995476E-3
16.31	-1.119613059E-1	-2.613748295E-3	-7.021651246E-3
16.32	-1.060726069E-1	-4.658019246E-3	-4.460045056E-3
16.330000000000002	-1.014173277E-1	-3.147251271E-3	-6.046544697E-3
16.34	-9.366658187E-2	-2.208645575E-3	-5.344170681E-3
16.35	-8.307487353E-2	-3.152954096E-3	-5.833301891E-3
16.36	-6.879371427E-2	-1.525795795E-3	-5.862324171E-3
16.37	-5.145387793E-2	-1.210157078E-3	-6.734911675E-3
16.38	-2.743677461E-2	-1.175262080E-3	-7.530375178E-3
16.39	2.871092142E-3	-1.982241744E-4	-7.517756631E-3
16.4	3.711196282E-2	7.962568632E-4	-7.188031408E-3
16.41	7.240190981E-2	8.167207860E-4	-6.367256562E-3
16.42	1.105387469E-1	1.232559838E-3	-5.452203275E-3
16.43	1.498520186E-1	2.437754112E-3	-5.503115278E-3
16.44	1.857491844E-1	1.161608866E-3	-3.782603112E-3
16.45	2.172603012E-1	2.074039266E-3	-6.356505463E-4
16.46	2.404248766E-1	3.096826263E-3	-4.843346140E-4
16.47	2.550401902E-1	3.740303583E-3	7.349230803E-4
16.48	2.635211133E-1	3.858722339E-3	1.713722500E-3
16.490000000000002	2.634548995E-1	3.470756133E-3	1.739084182E-3
16.5	2.564399201E-1	2.236222430E-3	2.204485217E-3
16.51	2.432184431E-1	2.416197243E-3	3.893177781E-3
16.52	2.270221748E-1	1.852193195E-3	4.027941785E-3
16.53	2.090210267E-1	1.550930425E-3	4.616096775E-3
16.54	1.921457716E-1	2.069895502E-3	5.544734592E-3
16.55	1.781618408E-1	2.044919483E-3	5.993273185E-3
16.56	1.668496665E-1	9.771438064E-4	5.870906713E-3
16.57	1.587504113E-1	1.290592918E-4	5.093391423E-3
16.580000000000002	1.520744933E-1	-5.391735048E-4	6.187352587E-3
16.59	1.474780330E-1	-1.248443046E-3	6.884359727E-3
16.6	1.456835489E-1	-7.465194845E-4	3.846977739E-3
16.61	1.436751775E-1	-1.769148670E-3	4.828966472E-3
16.62	1.440453050E-1	-1.267592034E-3	2.095352821E-3
16.63	1.430855093E-1	1.444029754E-4	-7.172026224E-4
16.64	1.401474314E-1	9.731888328E-4	-2.227111290E-3
16.65	1.380189495E-1	2.235509221E-3	-3.917912679E-3
16.66	1.326122851E-1	2.977711315E-3	-4.954001784E-3
16.67	1.263017186E-1	2.658429193E-3	-5.988022617E-3
16.68	1.188343273E-1	3.226022278E-3	-6.535277461E-3
16.69	1.091655286E-1	3.290847452E-3	-6.652713589E-3
16.7	9.770555051E-2	2.120928927E-3	-7.095035188E-3
16.71	8.496273455E-2	2.028048359E-3	-8.059014544E-3
16.72	6.845957609E-2	1.808085177E-3	-8.317287209E-3
16.73	4.978873982E-2	1.563813558E-3	-7.585993377E-3
16.740000000000002	2.998436124E-2	7.353780559E-4	-7.197173764E-3
16.75	5.365076398E-3	-1.987422416E-5	-6.947702849E-3
16.76	-2.155250836E-2	-5.184174701E-4	-6.409417774E-3
16.77	-5.202733736E-2	-1.460248294E-3	-5.055579212E-3
16.78	-8.340967343E-2	-1.480618143E-3	-4.424160992E-3
16.79	-1.154007417E-1	-1.970399889E-3	-3.721634914E-3
16.8	-1.456615230E-1	-2.324736809E-3	-1.776596512E-3
16.81	-1.759248422E-1	-1.692464246E-3	-4.496286851E-4
16.82	-2.019085375E-1	-2.059232002E-3	1.673268556E-3
16.830000000000002	-2.248109294E-1	-3.404902185E-3	3.856462532E-3
16.84	-2.441987629E-1	-3.928515514E-3	4.739766011E-3
16.85	-2.565902066E-1	-3.830012974E-3	4.979253103E-3
16.86	-2.625261654E-1	-4.305249539E-3	6.007899786E-3
16.87	-2.607377478E-1	-3.874191699E-3	6.762979883E-3
16.88	-2.534211876E-1	-3.322834024E-3	7.245022404E-3
16.89	-2.417503507E-1	-3.479476426E-3	7.180398784E-3
16.9	-2.240845343E-1	-3.243837550E-3	7.597043294E-3
16.91	-2.041507994E-1	-2.503434009E-3	8.960588070E-3
16.92	-1.844598551E-1	-1.551632931E-3	8.513967180E-3
16.93	-1.634008383E-1	-1.941336143E-3	8.762392114E-3
16.94	-1.477442095E-1	-1.158016273E-3	8.643535584E-3
16.95	-1.365931216E-1	-1.162408996E-3	9.360340086E-3
16.96	-1.309474470E-1	-8.863210156E-4	8.093098081E-3
16.97	-1.288380117E-1	-9.923016150E-4	6.754565985E-3
16.98	-1.308214633E-1	-5.707252829E-4	5.181011826E-3
16.990000000000002	-1.352462080E-1	-4.239933403E-4	3.343092277E-3
17.0	-1.405134534E-1	-9.399327925E-4	1.562356406E-3
17.01	-1.464421659E-1	-1.032815916E-3	4.264335007E-4
17.02	-1.508315208E-1	-1.053553598E-3	-3.311227584E-4
17.03	-1.501316409E-1	-6.415832818E-4	-2.389470674E-3
17.04	-1.454281881E-1	-1.758767479E-3	-4.854921597E-3
17.05	-1.376565834E-1	-2.827386538E-3	-5.156459314E-3
17.06	-1.223301504E-1	-2.731751096E-3	-5.131343572E-3
17.07	-1.057351907E-1	-1.216204099E-3	-5.101942157E-3
17.080000000000002	-8.398562748E-2	-1.729884110E-3	-6.169091847E-3
17.09	-6.021408225E-2	-1.708918583E-3	-4.893384063E-3
17.1	-3.582881916E-2	-1.179343987E-3	-7.153115762E-3
17.11	-1.014121096E-2	-5.235376443E-4	-7.572281771E-3
17.12	1.630996822E-2	-5.558913818E-5	-7.382233937E-3
17.13	4.237708426E-2	2.581001803E-5	-6.647124103E-3
17.14	6.751291096E-2	1.281566134E-4	-6.694810487E-3
17.150000000000002	9.390532690E-2	2.035340832E-4	-6.139059686E-3
17.16	1.203679887E-1	7.937174925E-4	-4.940590756E-3
17.17	1.457998978E-1	1.754691676E-3	-4.099355038E-3
17.18	1.707955851E-1	2.113375810E-3	-3.112164325E-3
17.19	1.925768601E-1	2.866192577E-3	-1.567031933E-3
17.2	2.159756691E-1	2.960034179E-3	-1.425227783E-4
17.21	2.334396260E-1	3.974580533E-3	9.450343382E-4
17.22	2.435032913E-1	3.388488919E-3	1.923316654E-3
17.23	2.502676802E-1	2.883667092E-3	2.972068738E-3
17.240000000000002	2.512920910E-1	1.598345440E-3	3.418279279E-3
17.25	2.468780761E-1	2.744890157E-3	3.834707326E-3
17.26	2.353672651E-1	2.155661370E-3	4.059129606E-3
17.27	2.207657175E-1	1.197958458E-3	4.472233465E-3
17.28	2.047015143E-1	2.916071805E-4	4.702004838E-3
17.29	1.867399700E-1	5.286441639E-4	5.799103536E-3
17.3	1.689821592E-1	-4.623381342E-5	6.167147382E-3
17.31	1.532043839E-1	-1.096303220E-3	5.867975458E-3
17.32	1.404306170E-1	-9.360567875E-4	5.914568262E-3
17.330000000000002	1.304278361E-1	-2.395560565E-4	5.594678923E-3
17.34	1.243446704E-1	1.170118536E-4	3.988270826E-3
17.35	1.225828185E-1	-2.938639823E-5	1.667456279E-3
17.36	1.245790919E-1	1.615728448E-4	9.558519155E-4
17.37	1.275737700E-1	-7.320188099E-4	4.459072481E-5
17.38	1.338637404E-1	1.126877107E-3	-3.585206654E-3
17.39	1.383301730E-1	1.922756620E-3	-3.894036020E-3
17.400000000000002	1.419471580E-1	2.055202045E-3	-5.422140617E-3
17.41	1.414759536E-1	2.063941189E-3	-6.305907553E-3
17.42	1.367460067E-1	2.525848726E-3	-6.886023580E-3
17.43	1.270770928E-1	2.633103694E-3	-6.876255005E-3
17.44	1.136206364E-1	2.487685673E-3	-7.385971540E-3
17.45	9.400023450E-2	1.680944267E-3	-8.072767699E-3
17.46	6.939192209E-2	1.119914232E-3	-7.870405572E-3
17.47	4.022979917E-2	1.487612381E-3	-7.202106509E-3
17.48	7.435453549E-3	1.297073018E-3	-7.456087616E-3
17.490000000000002	-2.657049920E-2	1.949470789E-4	-7.760379978E-3
17.5	-5.847023702E-2	1.256174985E-4	-5.452313574E-3
17.51	-8.970222555E-2	-1.132862811E-3	-5.119083225E-3
17.52	-1.213603525E-1	-1.653593732E-3	-3.695854591E-3
17.53	-1.454342552E-1	-2.998810373E-3	-3.890763905E-3
17.54	-1.684050854E-1	-3.156857324E-3	-1.898228313E-3
17.55	-1.853725602E-1	-3.570756643E-3	-2.232892260E-4
17.56	-2.006583043E-1	-3.936938937E-3	1.383412780E-3
17.57	-2.126917475E-1	-3.739552615E-3	3.211793492E-3
17.580000000000002	-2.207548311E-1	-3.328962372E-3	4.258535977E-3
17.59	-2.269776232E-1	-3.942358535E-3	4.689063060E-3
17.6	-2.301206718E-1	-3.887740519E-3	5.033383386E-3
17.61	-2.307466902E-1	-3.288472199E-3	6.132672227E-3
17.62	-2.293470588E-1	-3.427154238E-3	7.657598689E-3
17.63	-2.254129079E-1	-3.489723221E-3	7.910520419E-3
17.64	-2.173610053E-1	-1.917612958E-3	7.711025181E-3
17.650000000000002	-2.077222630E-1	-1.865219893E-3	8.719912339E-3
17.66	-1.958382246E-1	-1.908524341E-3	9.646243536E-3
17.67	-1.820594502E-1	-8.654933034E-4	8.959328683E-3
17.68	-1.660492845E-1	-1.983668767E-3	8.410681103E-3
17.69	-1.524153132E-1	-6.862326169E-4	8.704976377E-3
17.7	-1.404921198E-1	-1.105959630E-3	7.068048507E-3
17.71	-1.298713185E-1	-1.317621103E-3	5.295415400E-3
17.72	-1.235684295E-1	-1.369214621E-3	3.098381053E-3
17.73	-1.217332483E-1	-1.852659719E-3	2.075426542E-3
17.740000000000002	-1.226939281E-1	-1.964959480E-3	1.464567978E-3
17.75	-1.263479088E-1	-1.460160650E-3	-1.165331254E-3
17.76	-1.314142158E-1	-1.491684058E-3	-3.303852216E-3
17.77	-1.356506610E-1	-2.218729736E-3	-3.585218581E-3
17.78	-1.374947790E-1	-2.535303028E-3	-4.524485672E-3
17.79	-1.369194289E-1	-2.780791654E-3	-5.429322796E-3
17.8	-1.302328993E-1	-1.875324082E-3	-5.017807834E-3
17.81	-1.166510134E-1	-8.882327826E-4	-5.093592042E-3
17.82	-9.704200139E-2	-2.424660185E-3	-5.736461231E-3
17.830000000000002	-7.379207689E-2	-1.763402782E-3	-7.393991139E-3
17.84	-4.378493222E-2	-1.178790790E-3	-7.815640385E-3
17.85	-1.042022813E-2	-1.811436075E-3	-7.691128474E-3
17.86	2.492659579E-2	-6.756411111E-4	-7.173974692E-3
17.87	6.160438466E-2	-2.501649285E-4	-7.428517775E-3
17.88	9.608142599E-2	4.591585213E-4	-6.635752019E-3
17.89	1.271237036E-1	8.385130175E-4	-5.582013187E-3
17.900000000000002	1.546799291E-1	1.373320907E-3	-4.713559076E-3
17.91	1.783901618E-1	1.993330881E-3	-3.922301701E-3
17.92	1.960681960E-1	2.188788193E-3	-3.286826090E-3
17.93	2.091219936E-1	2.640261668E-3	-2.245007973E-3
17.94	2.197128757E-1	2.905704348E-3	-9.006683653E-4
17.95	2.241731598E-1	3.168629195E-3	5.192980185E-4
17.96	2.244689069E-1	3.173924657E-3	2.368318929E-6
17.97	2.228114895E-1	3.736091912E-3	2.099015117E-3
17.98	2.191107325E-1	2.689812221E-3	3.531301830E-3
17.990000000000002	2.129138296E-1	2.475320199E-3	4.234398535E-3
18.0	2.044434825E-1	1.846413739E-3	4.306418803E-3
18.01	1.966127935E-1	1.715032414E-3	4.577466019E-3
18.02	1.880767609E-1	9.938378426E-4	5.389222526E-3
18.03	1.799665826E-1	1.044355137E-4	6.527956864E-3
18.04	1.723457706E-1	7.113476573E-5	5.973911458E-3
18.05	1.648221313E-1	-4.076266313E-4	5.045467253E-3
18.06	1.576518594E-1	-1.327271593E-3	4.795926727E-3
18.07	1.511406133E-1	-1.348952170E-3	4.370999927E-3
18.080000000000002	1.448963874E-1	-4.550675677E-4	3.096847704E-3
18.09	1.381838939E-1	-1.949612038E-4	1.400978816E-3
18.1	1.334371750E-1	-9.552211356E-5	9.874028290E-5
18.11	1.288751489E-1	1.348680493E-3	-1.732987674E-3
18.12	1.268574069E-1	1.873608328E-3	-2.823029113E-3
18.13	1.250004105E-1	3.404242434E-3	-4.538118031E-3
18.14	1.230861060E-1	2.475313376E-3	-5.434815256E-3
18.150000000000002	1.204222023E-1	3.130952706E-3	-5.460134616E-3
18.16	1.157713760E-1	3.414635346E-3	-6.406769841E-3
18.17	1.096389891E-1	2.742917497E-3	-6.930012889E-3
18.18	1.001921770E-1	1.783725041E-3	-6.984713131E-3
18.19	8.664962534E-2	1.039392437E-3	-7.193215002E-3
18.2	6.710459656E-2	1.431583837E-3	-7.053610546E-3
18.21	4.307527265E-2	1.867071818E-3	-7.315767890E-3
18.22	1.450876549E-2	5.948047436E-4	-7.354239587E-3
18.23	-1.890520652E-2	-1.141602647E-3	-6.137403705E-3
18.240000000000002	-5.653826392E-2	-6.894026717E-4	-6.591171377E-3
18.25	-9.221718979E-2	-1.402793268E-3	-5.413204175E-3
18.26	-1.263490797E-1	-2.971511367E-3	-4.727822730E-3
18.27	-1.608638966E-1	-2.373766730E-3	-1.902468327E-3
18.28	-1.898093410E-1	-9.934277460E-4	-8.979431651E-4
18.29	-2.104376732E-1	-1.798982643E-3	1.750955203E-3
18.3	-2.256368910E-1	-2.249856613E-3	2.895069329E-3
18.31	-2.331221489E-1	-2.575875444E-3	3.885237535E-3
18.32	-2.349315929E-1	-3.573638461E-3	5.051400886E-3
18.330000000000002	-2.313483506E-1	-3.928530073E-3	5.769364178E-3
18.34	-2.232978563E-1	-3.985936995E-3	6.083544828E-3
18.35	-2.131522355E-1	-4.338122448E-3	6.565734861E-3
18.36	-2.026851958E-1	-4.030389243E-3	7.272521475E-3
18.37	-1.924626009E-1	-3.038760094E-3	7.632584005E-3
18.38	-1.827703231E-1	-2.530179027E-3	7.461548828E-3
18.39	-1.738533686E-1	-1.977457446E-3	7.905972523E-3
18.400000000000002	-1.674385167E-1	-9.072721583E-4	8.319704425E-3
18.41	-1.649856470E-1	-5.970595848E-4	8.162728094E-3
18.42	-1.610566050E-1	-6.297925250E-5	8.402421559E-3
18.43	-1.581747433E-1	-9.030473876E-4	6.993361048E-3
18.44	-1.564818625E-1	-1.515996071E-3	6.389026100E-3
18.45	-1.528026261E-1	-8.380174842E-4	5.495751292E-3
18.46	-1.489611608E-1	-1.130896531E-3	4.250698372E-3
18.47	-1.454694127E-1	-5.813218822E-4	1.949255662E-3
18.48	-1.420175192E-1	-1.110253729E-3	-1.393515099E-4
18.490000000000002	-1.383999600E-1	-1.423590073E-3	-1.700598905E-3
18.5	-1.335686329E-1	-1.630395237E-3	-2.343245264E-3
18.51	-1.275575779E-1	-2.113428288E-3	-2.968389383E-3
18.52	-1.203494687E-1	-2.109713906E-3	-4.280432741E-3
18.53	-1.121299302E-1	-1.893531704E-3	-5.264528786E-3
18.54	-1.026603704E-1	-1.858266846E-3	-6.067570941E-3
18.55	-8.948631465E-2	-2.096099118E-3	-7.207846295E-3
18.56	-7.237513404E-2	-6.771076909E-4	-5.755600220E-3
18.57	-5.327148761E-2	-1.179943079E-3	-7.912806926E-3
18.580000000000002	-2.996668894E-2	-3.077284619E-4	-6.971608784E-3
18.59	-3.128549561E-3	-6.705907966E-4	-6.731274335E-3
18.6	2.558696810E-2	3.394924467E-4	-6.165870306E-3
18.61	5.702363334E-2	2.249832563E-4	-6.486159656E-3
18.62	9.003556577E-2	1.125762110E-3	-5.738764853E-3
18.63	1.216372564E-1	1.610258659E-3	-5.396631737E-3
18.64	1.505643903E-1	1.595716180E-3	-4.427826818E-3
18.650000000000002	1.776932983E-1	2.082094870E-3	-3.186990560E-3
18.66	2.009595621E-1	2.355930218E-3	-2.436614618E-3
18.67	2.181474417E-1	2.568164364E-3	-1.174340264E-3
18.68	2.314063488E-1	3.307853444E-3	4.717868442E-4
18.69	2.367419832E-1	3.060321486E-3	6.434936982E-4
18.7	2.362935674E-1	2.786997349E-3	3.061892553E-3
18.71	2.304363291E-1	3.629303105E-3	3.733831480E-3
18.72	2.205662828E-1	6.465178740E-4	3.237111592E-3
18.73	2.088424734E-1	1.066543795E-3	3.995741222E-3
18.740000000000002	1.931619655E-1	3.053377001E-4	4.327937553E-3
18.75	1.783694612E-1	-1.124710254E-3	5.294054393E-3
18.76	1.642319417E-1	-1.415173718E-3	5.884270135E-3
18.77	1.535601014E-1	-5.183773009E-4	6.424483611E-3
18.78	1.461983479E-1	-3.633085658E-4	5.940116024E-3
18.79	1.416663793E-1	1.277094730E-4	5.509317115E-3
18.8	1.409862351E-1	1.602259242E-3	5.008315690E-3
18.81	1.431790547E-1	1.920427509E-3	3.544953870E-3
18.82	1.471853143E-1	1.929654910E-3	2.439982760E-3
18.830000000000002	1.505830820E-1	1.456572163E-3	6.479989046E-4
18.84	1.533456526E-1	3.600261373E-4	-2.737048390E-4
18.85	1.545825287E-1	1.214296200E-3	-1.844000954E-3
18.86	1.532902889E-1	5.379042402E-4	-2.996217396E-3
18.87	1.461660848E-1	-2.095933361E-4	-3.804264694E-3
18.88	1.368106884E-1	5.432387994E-4	-5.546769562E-3
18.89	1.252057981E-1	2.111769284E-3	-5.922869365E-3
18.900000000000002	1.103375192E-1	3.202614610E-3	-6.340624394E-3
18.91	9.284997843E-2	3.356937467E-3	-6.757758591E-3
18.92	7.393725646E-2	3.632921183E-3	-7.803421123E-3
18.93	5.322588740E-2	2.745165410E-3	-8.028729135E-3
18.94	3.169280848E-2	1.853968063E-3	-8.102421920E-3
18.95	9.211743203E-3	1.478297362E-3	-7.646809688E-3
18.96	-1.471024920E-2	2.185529983E-4	-6.887714186E-3
18.97	-3.980455520E-2	-1.209343050E-3	-6.427918030E-3
18.98	-6.547141305E-2	-1.352904960E-3	-5.793102811E-3
18.990000000000002	-9.382375580E-2	-2.898404758E-3	-5.370607631E-3
19.0	-1.208062089E-1	-4.035213126E-3	-4.048865331E-3
19.01	-1.472366043E-1	-2.033468448E-3	-6.479851267E-4
19.02	-1.733707975E-1	-2.293117279E-3	9.983626400E-6
19.03	-1.967781810E-1	-2.493545021E-3	1.436520053E-3
19.04	-2.148046119E-1	-1.231720761E-3	2.424472338E-3
19.05	-2.259705478E-1	-1.141930733E-3	3.150296805E-3
19.06	-2.323944019E-1	-1.862540029E-3	3.606047362E-3
19.07	-2.349584420E-1	-2.721372224E-3	5.103765777E-3
19.080000000000002	-2.311304392E-1	-2.896946780E-3	6.316803922E-3
19.09	-2.225316542E-1	-2.954635705E-3	6.995356708E-3
19.1	-2.105614882E-1	-3.437388684E-3	7.743360883E-3
19.11	-1.968174990E-1	-3.901410651E-3	8.420506238E-3
19.12	-1.812200589E-1	-4.487799710E-3	9.207742677E-3
19.13	-1.666782773E-1	-3.953183176E-3	9.143957596E-3
19.14	-1.554078392E-1	-2.282315317E-3	8.785904514E-3
19.150000000000002	-1.458895218E-1	-2.234114758E-3	9.154742534E-3
19.16	-1.411097978E-1	-7.222380768E-4	7.594607046E-3
19.17	-1.377686710E-1	3.396008716E-4	6.888391269E-3
19.18	-1.379671133E-1	-3.044533968E-4	5.068389225E-3
19.19	-1.404885785E-1	-1.810757965E-4	5.157033746E-3
19.2	-1.445427949E-1	-8.599146423E-4	3.906613802E-3
19.21	-1.487718806E-1	-2.394023840E-3	1.983364169E-3
19.22	-1.526979989E-1	-2.941064257E-3	8.655876386E-4
19.23	-1.535153150E-1	-2.971589459E-3	-3.101250888E-4
19.240000000000002	-1.514076928E-1	-3.213228963E-3	-1.862222195E-3
19.25	-1.460728845E-1	-3.220838113E-3	-2.978919258E-3
19.26	-1.364519602E-1	-2.686229993E-3	-3.631144210E-3
19.27	-1.209326405E-1	-1.854425785E-3	-4.633223726E-3
19.28	-1.036942596E-1	-7.564167023E-4	-5.217417670E-3
19.29	-8.222393503E-2	-9.314840492E-4	-5.995001202E-3
19.3	-5.490523181E-2	-3.512776951E-4	-6.558452484E-3
19.31	-2.839800943E-2	-4.121148213E-4	-5.739938404E-3
19.32	2.052632049E-3	-1.323078426E-4	-6.832564817E-3
19.330000000000002	3.056384531E-2	-1.520371425E-4	-6.512784228E-3
19.34	5.851463964E-2	2.112470313E-5	-6.675154374E-3
19.35	8.553154370E-2	8.374352663E-5	-6.812299740E-3
19.36	1.108877901E-1	3.896915812E-4	-6.325908786E-3
19.37	1.323123736E-1	8.658879530E-4	-5.104353788E-3
19.38	1.522821185E-1	6.352276123E-4	-3.353043404E-3
19.39	1.710033977E-1	9.286243009E-4	-1.878535571E-3
19.400000000000002	1.855746676E-1	2.319946431E-3	-1.495143540E-3
19.41	1.974051853E-1	3.382548728E-3	-1.293139965E-3
19.42	2.081124503E-1	4.500230173E-3	3.810938358E-4
19.43	2.144228321E-1	4.149485923E-3	4.086169595E-4
19.44	2.190165834E-1	2.711790986E-3	1.976686399E-3
19.45	2.189653560E-1	3.070762816E-3	2.726416292E-3
19.46	2.166542582E-1	1.424716301E-3	3.083074901E-3
19.47	2.091180307E-1	7.360834259E-4	4.331320480E-3
19.48	2.005223518E-1	-3.752602116E-4	5.275651131E-3
19.490000000000002	1.886870009E-1	-1.682746342E-3	5.916851728E-3
19.5	1.746604036E-1	-1.562870895E-3	6.605586525E-3
19.51	1.617320360E-1	-7.829896502E-4	6.091596435E-3
19.52	1.502446084E-1	-9.086424429E-4	5.514121077E-3
19.53	1.407247146E-1	-5.752686029E-4	5.002247497E-3
19.54	1.341845574E-1	1.357152215E-4	4.323165922E-3
19.55	1.314518192E-1	5.433431089E-4	3.118100808E-3
19.56	1.312030831E-1	1.015809075E-3	1.421158445E-3
19.57	1.334029267E-1	1.504261049E-3	1.002753724E-3
19.580000000000002	1.381297484E-1	1.973801007E-3	-1.907806541E-3
19.59	1.429806384E-1	5.557912361E-4	-3.094165283E-3
19.6	1.478835078E-1	1.455477963E-3	-3.283681761E-3
19.61	1.493025116E-1	1.852799840E-3	-4.382955220E-3
19.62	1.446828688E-1	2.332584824E-3	-5.151415186E-3
19.63	1.377265291E-1	1.652602561E-3	-6.321535960E-3
19.64	1.236841814E-1	2.152623938E-3	-6.992185246E-3
19.650000000000002	1.040684286E-1	1.702141266E-3	-6.850514451E-3
19.66	8.011604903E-2	1.226518922E-3	-6.680113248E-3
19.67	5.342436731E-2	1.629738794E-3	-7.414547736E-3
19.68	2.387320245E-2	1.188190509E-3	-7.299863847E-3
19.69	-7.500278605E-3	7.450289385E-4	-6.566459111E-3
19.7	-3.938125442E-2	9.840259471E-4	-6.328105226E-3
19.71	-7.018895980E-2	2.503465972E-4	-6.273228974E-3
19.72	-9.811095381E-2	-1.615911694E-3	-5.496264939E-3
19.73	-1.233183329E-1	-1.170525095E-3	-3.024152302E-3
19.740000000000002	-1.472083583E-1	-2.622808032E-3	-2.187490492E-3
19.75	-1.656605817E-1	-2.818822821E-3	-1.801011973E-3
19.76	-1.799452253E-1	-3.909564875E-3	1.618803356E-3
19.77	-1.923228911E-1	-3.801512739E-3	2.135687035E-3
19.78	-2.008872265E-1	-2.551669063E-3	2.370966921E-3
19.79	-2.058325590E-1	-2.502466695E-3	3.600437459E-3
19.8	-2.077849451E-1	-3.093372450E-3	4.716700177E-3
19.81	-2.076828239E-1	-3.035290565E-3	5.178244649E-3
19.82	-2.058002067E-1	-2.712511270E-3	5.971481736E-3
19.830000000000002	-2.021169848E-1	-2.547895507E-3	6.599069150E-3
19.84	-1.974026302E-1	-2.318071690E-3	7.529057282E-3
19.85	-1.907343582E-1	-2.561523843E-3	9.312057129E-3
19.86	-1.835049886E-1	-2.814428577E-3	8.674705590E-3
19.87	-1.746662992E-1	-2.646836371E-3	8.448850824E-3
19.88	-1.687409373E-1	-1.610870117E-3	7.667204494E-3
19.89	-1.617087433E-1	-1.654985086E-3	7.264824656E-3
19.900000000000002	-1.532785481E-1	-7.176626461E-4	7.982193888E-3
19.91	-1.491615363E-1	-5.663023516E-4	7.479894970E-3
19.92	-1.449159508E-1	2.170623647E-4	4.954261302E-3
19.93	-1.406814896E-1	1.333594700E-4	3.246033170E-3
19.94	-1.390354262E-1	-1.826404901E-3	2.159524266E-3
19.95	-1.386759278E-1	-2.226607947E-3	9.498330712E-4
19.96	-1.385537802E-1	-2.345722011E-3	-4.459972850E-4
19.97	-1.379053687E-1	-3.032196375E-3	-1.711134675E-3
19.98	-1.360489133E-1	-3.042934919E-3	-2.797266006E-3
19.990000000000002	-1.333706550E-1	-2.604529697E-3	-3.588966305E-3
20.0	-1.283864462E-1	-2.680609871E-3	-4.004406028E-3
20.01	-1.188023606E-1	-2.490230871E-3	-4.575682307E-3
20.02	-1.044646550E-1	-1.316056877E-3	-5.097940426E-3
20.03	-8.508015479E-2	-1.924841262E-3	-4.945987811E-3
20.04	-5.829446723E-2	1.569391221E-4	-6.257296004E-3
20.05	-3.059371896E-2	-1.424992736E-3	-7.484589142E-3
20.06	8.486013469E-4	-4.657448455E-4	-6.835519459E-3
20.07	3.497221968E-2	-1.125585219E-4	-6.608193423E-3
20.080000000000002	6.779683992E-2	-3.390719159E-4	-6.477911404E-3
20.09	1.010381251E-1	-2.176306759E-4	-5.878315330E-3
20.1	1.315245118E-1	-2.321787785E-4	-5.521212135E-3
20.11	1.568413027E-1	3.773070672E-4	-4.313591716E-3
20.12	1.775704404E-1	4.654353664E-4	-3.182877820E-3
20.13	1.925025994E-1	8.593666076E-4	-2.331910338E-3
20.14	2.009768026E-1	2.554043282E-3	-4.745175404E-4
20.150000000000002	2.042781798E-1	2.512830254E-3	4.261892594E-4
20.16	2.051351181E-1	2.726809859E-3	5.612492303E-4
20.17	2.016118755E-1	3.284715966E-3	1.631403607E-3
20.18	1.973485173E-1	2.604101831E-3	3.131131087E-3
20.19	1.910045198E-1	1.389566347E-3	3.576769445E-3
20.2	1.851058016E-1	2.335937076E-3	4.699185531E-3
20.21	1.801091842E-1	1.667009182E-3	4.348219249E-3
20.22	1.760072180E-1	9.477347688E-4	6.425389826E-3
20.23	1.720405823E-1	6.605991754E-4	6.931963428E-3
20.240000000000002	1.684364072E-1	1.438360831E-4	5.920170092E-3
20.25	1.649697007E-1	-6.885525434E-4	5.873572818E-3
20.26	1.613611371E-1	-3.993620510E-4	5.726458813E-3
20.27	1.579906752E-1	-3.122608057E-4	4.950774208E-3
20.28	1.548527602E-1	-7.721389477E-4	3.631519825E-3
20.29	1.510400439E-1	-7.218702647E-5	2.173058747E-3
20.3	1.477071680E-1	6.445771632E-4	7.043079019E-4
20.31	1.452020557E-1	1.591646905E-3	-1.496817533E-3
20.32	1.409498281E-1	1.757696376E-3	-2.016926306E-3
20.330000000000002	1.371055140E-1	1.782094712E-3	-3.221518229E-3
20.34	1.343759543E-1	2.708068478E-3	-2.943373076E-3
20.35	1.303934320E-1	2.203644980E-3	-3.628346516E-3
20.36	1.253767781E-1	4.403103031E-3	-4.789983418E-3
20.37	1.159826661E-1	2.469447196E-3	-6.003539894E-3
20.38	1.048351261E-1	3.083322860E-3	-5.624186593E-3
20.39	8.922801786E-2	1.796225383E-3	-6.291392971E-3
20.400000000000002	7.131225842E-2	5.838965611E-4	-7.367183183E-3
20.41	4.855649424E-2	4.806380993E-4	-7.986064379E-3
20.42	2.175107728E-2	5.461076539E-4	-7.847561542E-3
20.43	-7.349715620E-3	2.231513317E-4	-7.067178704E-3
20.44	-3.737686653E-2	-2.775786445E-4	-6.131247848E-3
20.45	-6.873097041E-2	-7.564441314E-4	-5.044468058E-3
20.46	-1.003104717E-1	-9.516716463E-4	-4.011558619E-3
20.47	-1.286674002E-1	-1.659917010E-3	-2.997900209E-3
20.48	-1.563908824E-1	-2.239557881E-3	-1.495422314E-3
20.490000000000002	-1.777885266E-1	-1.711688302E-3	2.195723989E-4
20.5	-1.950325735E-1	-2.751087871E-3	1.623517442E-3
20.51	-2.065040769E-1	-3.329674325E-3	2.659518705E-3
20.52	-2.129312013E-1	-3.001285221E-3	3.600374015E-3
20.53	-2.141462572E-1	-2.423888821E-3	3.967042512E-3
20.54	-2.105200828E-1	-2.841518997E-3	4.493308399E-3
20.55	-2.040887555E-1	-2.284498857E-3	4.752238920E-3
20.56	-1.953302340E-1	-2.270503640E-3	5.836775618E-3
20.57	-1.854714200E-1	-2.506338516E-3	7.072484110E-3
20.580000000000002	-1.751917229E-1	-2.275079061E-3	7.694326345E-3
20.59	-1.659781580E-1	-2.464937590E-3	8.003900877E-3
20.6	-1.594315936E-1	-2.562371442E-3	7.987514556E-3
20.61	-1.552501711E-1	-2.401684561E-3	8.654976901E-3
20.62	-1.536693000E-1	-8.069659794E-4	9.056039157E-3
20.63	-1.550286483E-1	-1.383137173E-3	8.148380495E-3
20.64	-1.552121707E-1	3.291292861E-4	6.684912060E-3
20.650000000000002	-1.579562232E-1	-6.127009102E-4	6.382586900E-3
20.66	-1.601064419E-1	-8.213382030E-4	4.761324163E-3
20.67	-1.607619355E-1	-2.246160788E-3	2.638602205E-3
20.68	-1.594966178E-1	-2.508279912E-3	1.836776511E-3
20.69	-1.570153469E-1	-2.023218321E-3	7.228266420E-4
20.7	-1.519201227E-1	-1.798281237E-3	-7.841275857E-4
20.71	-1.438790222E-1	-1.996708501E-3	-1.416719837E-3
20.72	-1.336001024E-1	-2.573408478E-3	-2.403895062E-3
20.73	-1.209277043E-1	-2.943821392E-3	-3.940421556E-3
20.740000000000002	-1.070075473E-1	-2.466743061E-3	-4.077631881E-3
20.75	-9.118023372E-2	-1.967657462E-3	-4.206931330E-3
20.76	-7.446340401E-2	-2.222132049E-3	-6.009065296E-3
20.77	-5.654040273E-2	-1.088386981E-3	-6.046966352E-3
20.78	-3.508779020E-2	-8.057010955E-4	-6.525175932E-3
20.79	-1.138020936E-2	5.126615745E-4	-6.121851929E-3
20.8	1.264659666E-2	9.253490363E-4	-6.585627032E-3
20.81	3.876211613E-2	7.225929884E-4	-7.296310889E-3
20.82	6.642253426E-2	8.962369437E-4	-6.928875431E-3
20.830000000000002	9.507698418E-2	1.033182594E-3	-5.619731344E-3
20.84	1.242871344E-1	9.093070740E-4	-4.455863205E-3
20.85	1.503324037E-1	1.999461245E-3	-3.033913916E-3
20.86	1.724397809E-1	2.156525460E-3	-2.324477031E-3
20.87	1.896211706E-1	1.724860202E-3	-2.625289211E-3
20.88	2.031914705E-1	1.843571246E-3	-1.516155178E-3
20.89	2.108938269E-1	2.492530532E-3	7.213434958E-5
20.900000000000002	2.134072611E-1	3.234383351E-3	6.002598670E-4
20.91	2.105025372E-1	2.153745941E-3	8.534560296E-4
20.92	2.044102370E-1	1.983320759E-3	1.873985021E-3
20.93	1.937820620E-1	2.094730477E-3	3.955962798E-3
20.94	1.829545991E-1	1.103414197E-3	4.303022615E-3
20.95	1.726383925E-1	8.185973437E-4	5.241124702E-3
20.96	1.627622682E-1	4.628196298E-4	6.243564026E-3
20.97	1.542858095E-1	-2.346085363E-5	6.173127309E-3
20.98	1.483307475E-1	1.687565470E-4	5.582368253E-3
20.990000000000002	1.448336420E-1	1.218273113E-4	5.014969701E-3
21.0	1.445579969E-1	-4.580076260E-4	4.823553797E-3
21.01	1.458461233E-1	-4.778881474E-4	4.132955544E-3
21.02	1.490095456E-1	-5.640776694E-5	2.866919581E-3
21.03	1.543604389E-1	-2.485494732E-4	2.780270741E-3
21.04	1.564104251E-1	-6.524929031E-4	2.837546804E-4
21.05	1.587859661E-1	9.634561519E-4	-3.661841880E-4
21.06	1.588412097E-1	2.055556240E-3	-2.937941456E-3
21.07	1.549272883E-1	1.916486964E-3	-3.473412080E-3
21.080000000000002	1.500271417E-1	1.578676323E-3	-3.688611825E-3
21.09	1.395689313E-1	1.539584074E-3	-4.938622374E-3
21.1	1.261099013E-1	2.191032701E-3	-5.845712563E-3
21.11	1.089017054E-1	2.698399703E-3	-5.919597992E-3
21.12	8.944141729E-2	2.746750465E-3	-5.852378500E-3
21.13	6.826377803E-2	2.625081334E-3	-5.856815078E-3
21.14	4.492302563E-2	2.183509867E-3	-5.828441504E-3
21.150000000000002	1.922897085E-2	4.861898304E-4	-6.767080536E-3
21.16	-5.242838339E-3	7.186935975E-4	-6.723371709E-3
21.17	-3.354806058E-2	-6.342029385E-4	-5.530127179E-3
21.18	-5.850359598E-2	-1.050999669E-3	-5.432169964E-3
21.19	-8.365252051E-2	-1.906503712E-3	-4.957492098E-3
21.2	-1.062105708E-1	-2.246008600E-3	-3.813362054E-3
21.21	-1.271518464E-1	-2.102274642E-3	-2.457785657E-3
21.22	-1.466980820E-1	-1.916330896E-3	-1.232933777E-3
21.23	-1.643179652E-1	-1.973979065E-3	-2.543005270E-4
21.240000000000002	-1.812756942E-1	-2.300148203E-3	6.374909465E-4
21.25	-1.936209907E-1	-2.263084562E-3	1.969541458E-3
21.26	-2.017275053E-1	-2.512788536E-3	3.148440778E-3
21.27	-2.057396313E-1	-2.946044246E-3	5.420247411E-3
21.28	-2.078205931E-1	-2.665852982E-3	5.168756101E-3
21.29	-2.058150478E-1	-2.225963138E-3	5.701483104E-3
21.3	-2.005495111E-1	-1.395409578E-3	6.216680507E-3
21.31	-1.910994703E-1	-2.942518979E-3	7.476434655E-3
21.32	-1.816124471E-1	-1.599495071E-3	7.244105985E-3
21.330000000000002	-1.702234115E-1	-1.986831439E-3	7.931363307E-3
21.34	-1.604602408E-1	-2.531880248E-3	7.982082067E-3
21.35	-1.520208738E-1	-1.177846074E-3	7.601492562E-3
21.36	-1.457461638E-1	-3.859589198E-4	6.723497342E-3
21.37	-1.416349813E-1	-5.503484724E-4	6.324007457E-3
21.38	-1.409153413E-1	-7.395600681E-4	6.685014203E-3
21.39	-1.434683961E-1	-1.347969061E-3	5.953124868E-3
21.400000000000002	-1.479718771E-1	-1.799364815E-3	3.064890316E-3
21.41	-1.533956555E-1	-1.634599567E-3	1.997880376E-3
21.42	-1.577459857E-1	-1.916622366E-3	2.373368324E-3
21.43	-1.607777457E-1	-3.090702178E-3	1.188936145E-3
21.44	-1.598866173E-1	-2.543912195E-3	-1.356660511E-3
21.45	-1.551151947E-1	-2.667270131E-3	-1.456619429E-3
21.46	-1.465972328E-1	-3.630817509E-3	-1.800631698E-3
21.47	-1.327000295E-1	-2.213302987E-3	-2.883004244E-3
21.48	-1.142152640E-1	-1.836765516E-3	-3.789923431E-3
21.490000000000002	-9.179260523E-2	-1.701030587E-3	-4.777067991E-3
21.5	-6.776117047E-2	-5.524010416E-4	-5.481407606E-3
21.51	-4.003255545E-2	-6.415314127E-4	-5.798215641E-3
21.52	-1.154418908E-2	-1.444915669E-3	-5.627687793E-3
21.53	1.561799068E-2	-8.418666290E-4	-5.412473627E-3
21.54	4.332769578E-2	4.205621965E-4	-6.043262387E-3
21.55	6.936083883E-2	1.914801800E-4	-7.246641540E-3
21.56	9.191828888E-2	5.225813762E-4	-6.025373127E-3
21.57	1.153795251E-1	1.617476518E-3	-4.616072815E-3
21.580000000000002	1.332175964E-1	1.284427185E-3	-3.865693282E-3
21.59	1.494736609E-1	1.728828511E-3	-3.653956920E-3
21.6	1.635689855E-1	2.162348500E-3	-3.196896040E-3
21.61	1.752180836E-1	2.498305851E-3	-1.894832346E-3
21.62	1.840764468E-1	2.544960454E-3	-5.777750980E-4
21.63	1.894301573E-1	2.346076929E-3	1.981805955E-4
21.64	1.934273121E-1	2.512092928E-3	9.797292084E-4
21.650000000000002	1.947855587E-1	2.418748000E-3	1.535237254E-3
21.66	1.924157517E-1	1.498089807E-3	2.210071024E-3
21.67	1.883966503E-1	9.293185466E-4	3.845954477E-3
21.68	1.838059552E-1	1.108902445E-3	4.435185060E-3
21.69	1.775311164E-1	1.592309661E-3	4.426706646E-3
21.7	1.704560854E-1	1.193967155E-3	5.025013355E-3
21.71	1.631561358E-1	3.569286211E-4	6.289337579E-3
21.72	1.563811419E-1	3.797059586E-4	5.628675567E-3
21.73	1.510923275E-1	5.626343678E-6	5.892130147E-3
21.740000000000002	1.471224534E-1	-2.585591815E-4	5.085566893E-3
21.75	1.442918889E-1	-8.150291871E-5	3.027623988E-3
21.76	1.432135405E-1	3.142335415E-5	1.428106222E-3
21.77	1.440562200E-1	-4.202313726E-4	1.306342448E-3
21.78	1.455641286E-1	9.195991427E-4	-2.147239229E-4
21.79	1.476141266E-1	1.873931662E-4	-8.013359568E-4
21.8	1.489760754E-1	2.515358999E-3	-2.585736937E-3
21.81	1.487197437E-1	3.284407827E-3	-3.583434031E-3
21.82	1.457984871E-1	2.979164939E-3	-4.123213189E-3
21.830000000000002	1.391568271E-1	2.687278383E-3	-4.604425887E-3
21.84	1.275512242E-1	2.261698063E-3	-5.442100715E-3
21.85	1.135687702E-1	1.799398951E-3	-5.842966346E-3
21.86	9.372352424E-2	4.488019614E-4	-6.139243573E-3
21.87	7.028453561E-2	6.290126634E-5	-6.147998691E-3
21.88	4.331981103E-2	8.877959145E-4	-6.025028321E-3
21.89	1.170350473E-2	1.294772930E-4	-6.751531258E-3
21.900000000000002	-1.973095086E-2	-4.455868186E-4	-7.437390833E-3
21.91	-5.119888125E-2	1.577715055E-4	-6.547492491E-3
21.92	-7.927043154E-2	-3.487726759E-4	-5.757756510E-3
21.93	-1.074741987E-1	8.381287936E-4	-4.535109570E-3
21.94	-1.287725278E-1	-1.063338034E-3	-3.209745075E-3
21.95	-1.484009887E-1	-2.086610708E-3	-1.689045509E-3
21.96	-1.645777462E-1	-2.431893961E-3	-1.074579285E-3
21.97	-1.742515357E-1	-2.391836150E-3	1.226415114E-3
21.98	-1.808769065E-1	-3.035296559E-3	2.111626941E-3
21.990000000000002	-1.841947085E-1	-3.434756194E-3	2.625524656E-3
22.0	-1.844882918E-1	-3.405815364E-3	3.086899040E-3
22.01	-1.839610969E-1	-3.115058337E-3	4.285582740E-3
22.02	-1.832301214E-1	-2.795810662E-3	5.561028452E-3
22.03	-1.812633264E-1	-2.503855045E-3	6.134948587E-3
22.04	-1.787615446E-1	-2.282543471E-3	6.497884338E-3
22.05	-1.762044394E-1	-2.158335121E-3	6.555938512E-3
22.06	-1.736160639E-1	-1.681332788E-3	7.069169128E-3
22.07	-1.705064668E-1	-1.079571760E-3	8.033116616E-3
22.080000000000002	-1.667832720E-1	-6.067569148E-4	8.814034597E-3
22.09	-1.639452525E-1	-1.401399933E-3	8.593595836E-3
22.1	-1.600126265E-1	-1.344148109E-3	7.161465898E-3
22.11	-1.571912617E-1	-2.024237530E-3	6.420531142E-3
22.12	-1.545923627E-1	-1.573121629E-3	5.836167801E-3
22.13	-1.513043649E-1	-1.978435391E-3	4.199363984E-3
22.14	-1.493431832E-1	-2.158757657E-3	3.139651530E-3
22.150000000000002	-1.485784609E-1	-1.758077051E-3	2.383120830E-3
22.16	-1.475086333E-1	-1.785681389E-3	1.481205054E-3
22.17	-1.462370013E-1	-1.710742862E-3	-2.160975976E-4
22.18	-1.440034678E-1	-1.331245045E-3	-2.030134614E-3
22.19	-1.393255756E-1	-1.662538517E-3	-2.337443682E-3
22.2	-1.326536189E-1	-1.624514612E-3	-2.037448667E-3
22.21	-1.214311275E-1	-1.560582633E-3	-3.558792971E-3
22.22	-1.069169135E-1	-2.444774387E-3	-5.446420414E-3
22.23	-8.869354680E-2	-2.516501051E-3	-4.987796885E-3
22.240000000000002	-6.727697332E-2	-2.778544389E-3	-7.121907856E-3
22.25	-3.939459385E-2	-1.876224989E-3	-6.874426809E-3
22.26	-1.129164854E-2	-1.127315135E-3	-6.102080922E-3
22.27	1.905533386E-2	-9.514172088E-4	-6.673544671E-3
22.28	4.770825232E-2	7.735341846E-4	-6.659787842E-3
22.29	7.798151650E-2	1.313236445E-3	-6.215052278E-3
22.3	1.050536324E-1	1.262382262E-3	-5.314275383E-3
