Time (s)	Acceleration x (m/s^2)	Acceleration y (m/s^2)	Acceleration z (m/s^2)
0.0	6.061108663E-3	2.095338229E-3	-5.601743361E-3
0.01	1.035247694E-2	2.637385849E-3	-4.703382155E-3
0.02	1.089165012E-2	3.098988060E-3	-4.354909560E-3
0.03	9.326960320E-3	3.428197069E-3	-4.668987691E-3
0.04	1.067348653E-2	1.340096095E-3	-5.587837076E-3
0.05	1.128180902E-2	3.525510171E-4	-5.390885970E-3
0.06	1.149728696E-2	9.953462818E-4	-5.749581954E-3
0.07	9.446188325E-3	8.514835307E-4	-5.228960135E-3
0.08	5.583277237E-3	2.039182954E-3	-5.331835518E-3
0.09	2.272343408E-3	4.217830500E-3	-4.526199253E-3
0.1	-6.548041528E-4	4.400026525E-3	-3.376555044E-3
0.11	-3.415209087E-3	3.207992196E-3	-3.042008949E-3
0.12	-5.336474412E-3	2.510710922E-3	-3.515069596E-3
0.13	-6.886045626E-3	1.676427248E-3	-4.023830441E-3
0.14	-9.699441985E-3	-2.548095844E-4	-4.454473158E-3
0.15	-1.170307738E-2	1.933296077E-3	-5.310604548E-3
0.16	-1.135190497E-2	2.398330289E-3	-5.642130486E-3
0.17	-8.875206027E-3	2.483246071E-3	-4.888976277E-3
0.18	-4.932773802E-3	1.456496727E-3	-4.632475346E-3
0.19	-8.063009881E-4	-2.220950121E-5	-3.739335663E-3
0.2	1.574163947E-3	6.547749105E-4	-3.844967332E-3
0.21	2.542695020E-3	2.931444436E-3	-4.342124094E-3
0.22	3.001394959E-3	4.367943963E-3	-4.330001836E-3
0.23	3.342275377E-3	4.419637956E-3	-5.467918211E-3
0.24	5.807323261E-3	3.720522944E-3	-5.433229109E-3
0.25	7.568510267E-3	1.980144582E-3	-5.675391743E-3
0.26	7.398595764E-3	1.720937121E-4	-5.407590328E-3
0.27	6.356840684E-3	4.109696784E-4	-5.767244002E-3
0.28	3.007065161E-3	2.456575457E-3	-5.074895522E-3
0.29	1.552692735E-3	2.563387023E-3	-4.431557589E-3
0.3	1.301169089E-3	2.906745354E-3	-4.048164056E-3
0.31	7.820146497E-4	1.834187837E-3	-4.823826953E-3
0.32	-3.091379486E-5	9.835266272E-4	-5.271307398E-3
0.33	-6.510834854E-4	2.018723611E-3	-4.892076155E-3
0.34	-1.702808337E-3	3.545075480E-3	-4.073308608E-3
0.35000000000000003	-3.884093674E-3	3.716001061E-3	-3.357078860E-3
0.36	-5.204791585E-3	3.347825783E-3	-3.943961854E-3
0.37	-4.851162060E-3	1.903246147E-3	-4.937520592E-3
0.38	-3.869622077E-3	4.093586994E-4	-4.810683952E-3
0.39	-4.142978722E-3	-8.026030919E-4	-4.188207289E-3
0.4	-4.808566840E-3	-1.619150004E-4	-3.529313704E-3
0.41000000000000003	-6.715308995E-3	1.105097208E-3	-4.858544966E-3
0.42	-6.738009535E-3	2.678057161E-3	-4.837728964E-3
0.43	-7.286207581E-3	3.345182669E-3	-4.143862437E-3
0.44	-6.633563626E-3	1.936220063E-3	-4.975049116E-3
0.45	-6.045985532E-3	2.978103323E-4	-4.884335118E-3
0.46	-5.317133676E-3	3.242333795E-4	-4.294119769E-3
0.47000000000000003	-4.926153655E-3	1.420010490E-3	-4.162075169E-3
0.48	-4.057745168E-3	2.635057190E-3	-4.070824035E-3
0.49	-1.870481104E-3	3.287390698E-3	-3.496627064E-3
0.5	7.281379508E-4	1.233699043E-3	-3.603649338E-3
0.51	5.705809845E-3	2.450997868E-4	-4.551175734E-3
0.52	8.538143956E-3	-1.192825219E-3	-4.151936646E-3
0.53	1.021609501E-2	1.370583794E-3	-4.459242825E-3
0.54	9.063245757E-3	2.903046284E-3	-3.160241744E-3
0.55	9.970552130E-3	3.935426150E-3	-3.060239455E-3
0.56	9.877768677E-3	3.877637797E-3	-3.671286648E-3
0.5700000000000001	9.971533475E-3	2.977881628E-3	-3.876587614E-3
0.58	7.132299065E-3	1.774004755E-3	-3.478653455E-3
0.59	3.364138074E-3	1.904631627E-3	-2.992991231E-3
0.6	5.341522747E-4	2.459835405E-3	-3.164730595E-3
0.61	-1.851440453E-3	2.282660876E-3	-3.029359480E-3
0.62	-3.618796349E-3	1.554154325E-3	-2.112917787E-3
0.63	-5.702274397E-3	4.638640872E-4	-2.405564122E-3
0.64	-8.044947291E-3	-4.219817179E-4	-3.886756690E-3
0.65	-8.226029235E-3	7.409702705E-4	-4.540597617E-3
0.66	-7.811853410E-3	2.042666350E-3	-3.928712508E-3
0.67	-8.515748875E-3	1.808991555E-3	-3.398088118E-3
0.68	-5.739432321E-3	4.330565307E-3	-3.890374800E-3
0.6900000000000001	-4.133118482E-3	3.685390396E-3	-3.508186745E-3
0.7000000000000001	-8.973936951E-4	9.831773558E-4	-3.320268430E-3
0.71	2.662217413E-3	5.617093117E-4	-3.061450420E-3
0.72	4.363394604E-3	6.035447314E-4	-2.854599310E-3
0.73	5.585716470E-3	1.228637371E-3	-3.055871626E-3
0.74	6.112440630E-3	1.702689651E-3	-3.410218855E-3
0.75	7.458502979E-3	2.578057847E-3	-2.951270954E-3
0.76	8.817835997E-3	2.479495197E-3	-2.717610342E-3
0.77	8.398334686E-3	1.161588090E-3	-3.294690984E-3
0.78	6.757010450E-3	8.112095507E-4	-3.719960227E-3
0.79	5.678802683E-3	2.185552392E-3	-3.302167555E-3
0.8	4.191907598E-3	3.710562412E-3	-3.211587569E-3
0.81	2.933006528E-3	2.827035952E-3	-4.800307442E-3
0.8200000000000001	3.780490806E-3	8.716745605E-4	-3.785000451E-3
0.8300000000000001	4.717483624E-3	1.250664417E-3	-2.310231825E-3
0.84	4.200019237E-3	6.225177227E-4	-3.261886678E-3
0.85	2.454275991E-3	2.810690249E-4	-2.824435021E-3
0.86	7.881189424E-4	1.685259763E-3	-3.248304030E-3
0.87	-1.042008669E-3	2.368086103E-3	-3.617566725E-3
0.88	-2.019834437E-3	8.900640960E-4	-2.544838610E-3
0.89	-1.769435498E-3	-6.270081694E-4	-3.417896590E-3
0.9	-2.226868857E-3	-1.290128808E-4	-3.568910787E-3
0.91	-4.091829898E-3	1.319844703E-3	-2.774057834E-3
0.92	-6.247010763E-3	2.704281443E-3	-2.331689877E-3
0.93	-7.836369918E-3	3.832571332E-3	-2.719529769E-3
0.9400000000000001	-8.436178458E-3	3.522353579E-3	-3.073181875E-3
0.9500000000000001	-7.981594655E-3	1.976323894E-3	-2.316231943E-3
0.96	-6.805916782E-3	6.140672324E-4	-1.945205646E-3
0.97	-5.563000672E-3	-2.060093481E-4	-2.245163350E-3
0.98	-4.668745426E-3	2.479727306E-4	-2.643445632E-3
0.99	-3.411310659E-3	1.544672523E-3	-2.324632308E-3
1.0	-2.381803961E-3	2.296451751E-3	-3.092626235E-3
1.01	2.102454982E-4	2.821484153E-3	-1.733159676E-3
1.02	3.979785568E-3	2.331802010E-3	-2.508820990E-3
1.03	6.773949633E-3	1.940717441E-3	-3.132475375E-3
1.04	8.656120565E-3	1.711782562E-3	-2.366216316E-3
1.05	8.844320728E-3	1.782368545E-3	-2.403653761E-3
1.06	8.426580234E-3	2.501395021E-3	-2.829049727E-3
1.07	7.090891249E-3	2.274213070E-3	-2.336159045E-3
1.08	5.373626340E-3	1.024559649E-3	-2.025056784E-3
1.09	3.886180651E-3	2.018149673E-4	-2.508977553E-3
1.1	1.637833902E-3	-6.037782314E-4	-3.147854016E-3
1.11	-2.273777695E-3	-1.729637559E-3	-3.187421462E-3
1.12	-7.892681704E-3	7.216416040E-4	-2.542318007E-3
1.1300000000000001	-9.062661715E-3	1.320374371E-3	-1.666447990E-3
1.1400000000000001	-1.007682196E-2	1.857513945E-3	-1.502119281E-3
1.1500000000000001	-1.125088458E-2	1.345474545E-3	-2.539018294E-3
1.16	-1.158860806E-2	-3.175994506E-4	-3.091528263E-3
1.17	-1.010827153E-2	-4.066193973E-4	-2.411861156E-3
1.18	-8.980989875E-3	3.059339348E-3	-1.956456801E-3
1.19	-6.488913269E-3	2.861291442E-3	-1.959298750E-3
1.2	-4.185239419E-3	1.082198062E-3	-2.598067295E-3
1.21	-1.970083180E-3	6.882842958E-4	-2.797558019E-3
1.22	5.021814792E-4	1.982278897E-4	-2.637493652E-3
1.23	2.848856254E-3	2.111975589E-4	-2.173284194E-3
1.24	4.011672093E-3	1.683918659E-3	-2.284368178E-3
1.25	3.714982672E-3	2.844819550E-3	-2.453263899E-3
1.26	3.308314635E-3	3.061531045E-3	-1.964790447E-3
1.27	3.591734991E-3	2.574714865E-3	-2.447353878E-3
1.28	4.232704892E-3	1.269051705E-3	-2.114289900E-3
1.29	5.594526781E-3	1.372648516E-4	-2.238935134E-3
1.3	4.395484701E-3	9.984747167E-4	-1.802011319E-3
1.31	3.932264318E-3	1.707477585E-3	-1.923651377E-3
1.32	3.769379361E-3	5.592184999E-4	-2.792886397E-3
1.33	3.720194491E-3	5.894858857E-4	-3.249708168E-3
1.34	5.030432862E-3	3.796184038E-4	-2.767213484E-3
1.35	5.312011196E-3	1.317102947E-4	-1.248735091E-3
1.36	5.057076915E-3	4.006272295E-4	-1.541951796E-3
1.37	5.357116234E-3	1.542482950E-3	-1.706241973E-3
1.3800000000000001	2.741908883E-3	2.128545184E-3	-1.924035349E-3
1.3900000000000001	1.909979880E-4	2.227208490E-3	-1.497936760E-3
1.4000000000000001	-1.362115265E-3	1.233768500E-3	-1.237444053E-3
1.41	-2.089902991E-3	2.318834999E-4	-1.120561263E-3
1.42	-3.207133197E-3	4.094378390E-4	-8.738838640E-4
1.43	-5.447741773E-3	3.716316173E-4	-1.198432420E-3
1.44	-6.833547266E-3	5.361737600E-4	-1.511081860E-3
1.45	-7.878689987E-3	1.361437155E-3	-1.829013694E-3
1.46	-7.079440433E-3	2.575101095E-4	-1.596833404E-3
1.47	-4.482955373E-3	-8.093071244E-4	-1.674321791E-3
1.48	-3.459194702E-3	-5.708445868E-4	-2.794793746E-3
1.49	-7.642814231E-4	-1.992647610E-4	-2.496007582E-3
1.5	2.927817575E-6	-4.452256075E-4	-1.976563427E-3
1.51	3.046713512E-3	1.959281028E-3	-1.296432974E-3
1.52	5.362453822E-3	2.182683072E-3	-1.558076183E-3
1.53	8.501923394E-3	1.901076178E-3	-1.819389071E-3
1.54	1.096903126E-2	1.133444283E-3	-1.547330519E-3
1.55	1.281636689E-2	-7.133304609E-4	-1.684129676E-3
1.56	1.221336620E-2	-1.057887488E-3	-2.339531976E-3
1.57	9.953123136E-3	3.862363483E-5	-2.311929366E-3
1.58	7.949395518E-3	8.076602623E-4	-1.777336278E-3
1.59	6.150122796E-3	6.331414117E-4	-1.939751439E-3
1.6	4.985442116E-3	-4.777580759E-4	-1.815637251E-3
1.61	3.728007330E-3	-9.977782032E-4	-1.381238600E-3
1.62	-4.448539803E-4	-2.819424146E-4	-1.016178747E-3
1.6300000000000001	-3.790670421E-3	1.478399880E-4	-1.629163177E-3
1.6400000000000001	-6.603260459E-3	2.216963742E-3	-5.260979143E-4
1.6500000000000001	-9.301262124E-3	1.825318428E-3	-1.298952439E-3
1.6600000000000001	-8.238707970E-3	5.469984310E-6	-1.599947982E-3
1.67	-8.778344662E-3	-8.930081389E-4	-8.767258135E-4
1.68	-6.202949778E-3	-1.357483741E-3	-1.215222975E-3
1.69	-6.142677951E-3	-1.525180750E-3	-7.606745950E-4
1.7	-5.127586943E-3	3.501070968E-4	-1.531862667E-3
1.71	-4.151742818E-3	8.367152626E-4	-2.259419839E-3
1.72	-2.854645159E-3	5.364493955E-4	-2.210488007E-3
1.73	-1.049670101E-3	-8.877690782E-6	-1.921037337E-3
1.74	9.188528243E-5	-1.194294717E-3	-1.469586989E-3
1.75	1.838224668E-4	-8.417918786E-4	-8.831386820E-4
1.76	1.003606621E-4	1.185134323E-3	-8.636954093E-4
1.77	-8.394484337E-5	2.763991181E-3	-6.720482317E-4
1.78	-1.007019083E-4	1.947670955E-3	-2.471674882E-4
1.79	4.993255464E-4	-3.967700454E-4	-1.108540065E-3
1.8	2.542704022E-3	-1.522402334E-3	-6.645726144E-4
1.81	3.028133764E-3	-1.729638602E-3	-9.024177996E-4
1.82	3.164358765E-3	-1.034325502E-3	-1.180509774E-3
1.83	2.897686058E-3	5.716423807E-4	-1.625945235E-3
1.84	3.447671627E-3	1.780089191E-3	-1.108796967E-3
1.85	3.952801660E-3	5.460951027E-4	-1.644852434E-3
1.86	4.812510787E-3	-1.006996065E-3	-1.038290475E-3
1.87	3.565534598E-3	-1.077684004E-3	-3.440987335E-4
1.8800000000000001	1.766283125E-3	-1.194279928E-4	-1.062404856E-3
1.8900000000000001	-3.440510940E-4	1.111609016E-3	-1.774610182E-3
1.9000000000000001	-2.756831752E-3	1.636801187E-3	-1.119969985E-3
1.9100000000000001	-4.487935311E-3	1.389719818E-3	-1.146424910E-3
1.92	-6.263425726E-3	1.703531063E-4	-1.122601184E-3
1.93	-8.249412856E-3	-1.368159144E-3	-7.379009490E-4
1.94	-9.080486199E-3	-1.614435787E-3	-1.192671171E-3
1.95	-9.669216427E-3	-7.426904368E-4	-7.286820658E-4
1.96	-1.094730024E-2	1.036143575E-3	-4.513298479E-4
1.97	-1.070213367E-2	1.996697012E-3	-9.119545427E-4
1.98	-8.324212329E-3	1.848257605E-3	-1.961568495E-3
1.99	-4.556280650E-3	-4.316114305E-4	-9.115640423E-4
2.0	-2.078335832E-3	7.941473497E-5	3.302691238E-4
2.0100000000000002	-4.609354024E-2	1.057421537E-1	-2.667110977E-2
2.02	2.923729708E-2	-7.140242235E-2	-1.385157212E-2
2.0300000000000002	-4.407689067E-3	-3.035988382E-2	1.694117807E-2
2.04	1.572509500E-4	3.327588763E-2	4.038320265E-2
2.05	4.215254607E-2	-4.573187995E-2	3.879977682E-2
2.06	-1.682202722E-3	-1.041587140E-1	1.151507778E-2
2.07	1.244713959E-2	-4.259926320E-2	-1.513151833E-2
2.08	-8.118311064E-3	-1.003272953E-2	-5.199752202E-2
2.09	-8.993910262E-2	-3.370836019E-2	-1.696694120E-3
2.1	-1.072818128E-1	1.071749223E-4	1.841239674E-2
2.11	-1.901586687E-1	9.372393114E-2	1.830502162E-2
2.12	-2.034468638E-1	-6.863110873E-2	1.413050304E-2
2.13	-1.806779939E-1	-5.182989986E-2	8.990918019E-3
2.14	-1.598745291E-1	1.867187299E-2	-1.364832177E-2
2.15	-1.363531795E-1	-2.739290688E-2	-5.408143997E-3
2.16	-6.915686521E-2	-1.195432787E-2	-1.930769196E-3
2.17	3.176353495E-2	7.528493372E-2	-1.179511418E-2
2.18	1.563734950E-1	3.130957631E-2	-8.600686690E-3
2.19	3.113642275E-1	-5.594834084E-2	-5.561712587E-3
2.2	4.515865806E-1	-1.119722982E-2	-6.290394597E-3
2.21	5.362812432E-1	-1.208705968E-2	7.396294511E-3
2.22	5.418798650E-1	-7.454395887E-2	4.551797952E-2
2.23	4.921665323E-1	4.171845479E-2	1.892757562E-2
2.24	3.287656663E-1	6.371482607E-2	1.984557657E-2
2.25	1.786021265E-1	-7.742660959E-2	-2.418722198E-2
2.2600000000000002	5.420687109E-2	1.153131232E-2	-5.304053031E-2
2.27	-1.179757808E-1	-2.449713731E-2	-4.287292737E-2
2.2800000000000002	-2.719923389E-1	-6.094336243E-2	-4.096815057E-3
2.29	-3.793873157E-1	2.417100819E-2	2.149497123E-2
2.3000000000000003	-4.566017233E-1	5.580187944E-2	3.905415187E-2
2.31	-4.586643492E-1	1.729123268E-3	3.214884410E-2
2.32	-3.651284144E-1	-6.393912241E-3	3.775579819E-3
2.33	-2.420664309E-1	-2.010709237E-2	-2.227648307E-2
2.34	-1.270087998E-1	-5.860093702E-2	-2.759213795E-2
2.35	-1.013063282E-2	-4.288294024E-2	-1.253835373E-2
2.36	1.026207913E-1	2.098022667E-2	-2.249847856E-4
2.37	1.573011077E-1	8.573282037E-3	2.223532329E-2
2.38	2.188511896E-1	-3.904629058E-2	2.608364390E-2
2.39	2.423039930E-1	4.767239749E-3	7.113743180E-3
2.4	2.089754547E-1	-3.220686885E-2	-1.979937901E-2
2.41	1.490499196E-1	-6.070616796E-2	-2.007370280E-2
2.42	8.838526293E-2	3.154043991E-2	-2.687359701E-2
2.43	6.260115011E-3	3.236915675E-2	-1.133727421E-2
2.44	-3.643367310E-2	-8.588353719E-3	5.804239610E-3
2.45	-3.906449863E-2	3.338190519E-2	1.037066187E-2
2.46	-2.627540973E-2	-9.583261573E-3	1.679452707E-2
2.47	-4.262121349E-3	-4.781709606E-2	2.456635904E-2
2.48	2.826443118E-2	-1.573395238E-2	1.775276188E-2
2.49	5.011001359E-2	1.349671808E-2	1.383215288E-3
2.5	5.452396403E-2	-4.716452982E-3	-1.484391560E-2
2.5100000000000002	7.324591925E-2	9.436505422E-3	-2.764365638E-2
2.52	8.683967814E-2	1.352072147E-2	-2.513162308E-2
2.5300000000000002	7.215830416E-2	-3.884797857E-2	-7.845723307E-3
2.54	4.155724819E-2	-3.855422386E-2	1.463595668E-2
2.5500000000000003	-4.313445887E-3	1.544540738E-2	2.476629863E-2
2.56	-8.993584265E-2	-1.213867041E-2	2.472986827E-2
2.57	-1.430287038E-1	-3.570300069E-3	1.121801982E-2
2.58	-1.790317112E-1	2.926075020E-2	-1.443954458E-2
2.59	-2.207659111E-1	-3.665489682E-2	-2.147630931E-2
2.6	-2.519870472E-1	-3.952821025E-2	-1.040211083E-2
2.61	-2.661622866E-1	-9.345452567E-3	8.224990784E-3
2.62	-2.834197127E-1	-6.368451144E-3	2.621222148E-2
2.63	-2.781047713E-1	-1.350204673E-3	2.899599681E-2
2.64	-2.370151591E-1	2.869119704E-2	1.086837750E-2
2.65	-1.710366439E-1	1.145296901E-2	-1.106706135E-2
2.66	-8.663941380E-2	-1.873244336E-2	-2.400292697E-2
2.67	1.790198606E-2	-5.064676342E-3	-2.511707403E-2
2.68	1.285465635E-1	7.403187875E-3	-1.822745671E-2
2.69	2.244854892E-1	-1.607741895E-2	2.887483934E-3
2.7	3.219593082E-1	7.791594208E-3	1.256886760E-2
2.71	4.009517734E-1	1.702397516E-2	2.208321799E-2
2.72	4.328833340E-1	-1.959791259E-2	1.866719786E-2
2.73	4.219227199E-1	-1.202055588E-2	1.349693928E-2
2.74	3.411040925E-1	-1.369425324E-2	-4.227190374E-3
2.75	2.120681871E-1	-1.611227962E-2	-1.911244740E-2
2.7600000000000002	6.931611191E-2	1.244097141E-2	-2.494309773E-2
2.77	-6.939165818E-2	2.895920145E-2	-2.154125517E-2
2.7800000000000002	-2.073391055E-1	7.130944313E-3	-5.550833898E-3
2.79	-3.079869604E-1	-9.027799459E-4	1.124991433E-2
2.8000000000000003	-3.649010435E-1	-5.085259985E-4	2.330056959E-2
2.81	-3.885334097E-1	-1.030892405E-2	2.593559871E-2
2.82	-3.629842078E-1	-5.485468831E-3	9.375578264E-3
2.83	-2.895090267E-1	1.546574356E-2	-1.346613737E-2
2.84	-1.787979468E-1	-1.185494421E-3	-1.977170138E-2
2.85	-5.380827396E-2	-2.420597914E-2	-1.300157318E-2
2.86	7.051513475E-2	-1.109913262E-2	4.671642942E-3
2.87	1.692211593E-1	-1.914122972E-2	2.420506130E-2
2.88	2.175562585E-1	-2.910302552E-2	3.231854091E-2
2.89	2.315604414E-1	1.547222239E-2	1.207232128E-2
2.9	2.130575513E-1	1.306180529E-2	-7.099444942E-3
2.91	1.593312319E-1	-8.617510879E-3	-2.615921395E-2
2.92	1.049234831E-1	8.409168494E-3	-2.736224943E-2
2.93	4.592304116E-2	1.649891071E-3	-1.433036538E-2
2.94	-4.255984918E-3	-9.634526696E-3	5.241705278E-3
2.95	-2.836368074E-2	1.008699176E-2	1.875786434E-2
2.96	-2.376619307E-2	1.962943268E-2	2.238678316E-2
2.97	8.712168824E-3	8.228066067E-3	1.593052997E-2
2.98	6.128776462E-2	8.254324770E-3	4.803390911E-3
2.99	1.285042151E-1	8.699141511E-3	-4.465289833E-3
3.0	1.951430906E-1	-1.476558718E-2	-1.103068700E-2
3.0100000000000002	2.348724712E-1	-1.018633972E-2	-1.464988103E-2
3.02	2.402610256E-1	1.201944933E-2	-1.791982321E-2
3.0300000000000002	2.165933895E-1	1.784740823E-3	-8.303562797E-3
3.04	1.674762810E-1	-9.472129009E-4	3.938719133E-3
3.0500000000000003	1.038518613E-1	9.997101528E-3	1.432675440E-2
3.06	1.740083968E-2	-1.642085642E-2	1.502036551E-2
3.0700000000000003	-7.997635056E-2	-2.049079451E-2	7.931562761E-3
3.08	-1.701205276E-1	-9.054580591E-4	-9.269498488E-3
3.09	-2.449673753E-1	-1.237073632E-3	-1.752335920E-2
3.1	-2.964080127E-1	-2.169244824E-3	-1.137612175E-2
3.11	-3.171620871E-1	5.453719801E-3	4.577920706E-3
3.12	-3.060978717E-1	1.921545936E-3	2.169458636E-2
3.13	-2.746816336E-1	-5.310405519E-3	3.078014980E-2
3.14	-2.213495480E-1	3.497383494E-3	2.109532008E-2
3.15	-1.523908317E-1	9.156613966E-3	-4.940392593E-3
3.16	-7.024767711E-2	3.420274945E-3	-2.741377877E-2
3.17	2.120936119E-2	5.543477309E-3	-3.746853701E-2
3.18	1.126057172E-1	7.716303236E-3	-2.702233613E-2
3.19	2.030770982E-1	-7.724718477E-3	-8.123909441E-4
3.2	2.784973110E-1	-8.521510389E-3	2.352614055E-2
3.21	3.292726005E-1	6.153989110E-3	2.821201930E-2
3.22	3.556320363E-1	-1.089677824E-2	1.996384149E-2
3.23	3.286358205E-1	-1.092413140E-3	6.212386714E-3
3.24	2.781241504E-1	1.061206766E-2	-1.173766754E-2
3.25	1.947751366E-1	1.008747168E-3	-1.522986472E-2
3.2600000000000002	9.304996065E-2	4.915644760E-4	-1.135515869E-2
3.27	-2.123356469E-2	6.612148536E-3	-3.279334650E-3
3.2800000000000002	-1.396696655E-1	7.748779570E-3	4.297123995E-3
3.29	-2.506496305E-1	6.898681899E-3	8.063522393E-3
3.3000000000000003	-3.238287997E-1	1.061211258E-2	9.568450171E-3
3.31	-3.682359492E-1	1.181711529E-3	1.041359554E-2
3.3200000000000003	-3.656542957E-1	-1.392312589E-2	3.495492448E-3
3.33	-3.192857968E-1	-5.665258684E-3	-5.671422942E-3
3.34	-2.486478602E-1	-4.403482702E-3	-9.445699355E-3
3.35	-1.614154087E-1	-4.957596388E-3	-7.367490431E-3
3.36	-6.665580483E-2	-3.288112042E-3	1.773360994E-3
3.37	2.114290912E-2	-5.885260097E-3	1.487775637E-2
3.38	8.722545626E-2	-1.481159410E-2	2.263282379E-2
3.39	1.188604990E-1	-1.158203249E-2	1.838250031E-2
3.4	1.102809076E-1	-1.622583897E-3	-2.077692345E-4
3.41	7.456592093E-2	-3.186183785E-5	-2.060950627E-2
3.42	2.476928288E-2	2.003838431E-3	-3.009917348E-2
3.43	-2.758368519E-2	9.039944796E-3	-2.500977262E-2
3.44	-7.413396237E-2	3.286107269E-3	-4.770292060E-3
3.45	-9.569870740E-2	-2.610716244E-3	1.649675733E-2
3.46	-9.414485444E-2	9.943531726E-3	2.808661113E-2
3.47	-5.750494947E-2	5.683768068E-3	2.112517009E-2
3.48	4.581492646E-3	4.823770646E-3	3.937670091E-3
3.49	8.078112820E-2	1.485613792E-2	-1.354246415E-2
3.5	1.681718388E-1	5.590320239E-3	-2.029834005E-2
3.5100000000000002	2.385148828E-1	-3.288045994E-3	-1.390109715E-2
3.52	2.840084687E-1	-2.004272739E-3	-2.592567103E-3
3.5300000000000002	2.932862104E-1	-5.689073529E-3	5.545050004E-3
3.54	2.561634410E-1	-7.866647866E-3	8.641668657E-3
3.5500000000000003	1.852484744E-1	-5.584514091E-4	5.412192056E-3
3.56	8.611970414E-2	1.616614395E-5	-1.272709450E-3
3.5700000000000003	-2.501565304E-2	-5.841848019E-3	-6.217687458E-3
3.58	-1.314189494E-1	-6.275788572E-3	-7.948208823E-3
3.59	-2.303686224E-1	-3.841323879E-3	-8.124993941E-3
3.6	-3.043149744E-1	-5.215404060E-3	-2.271283766E-3
3.61	-3.425232548E-1	2.803660654E-3	5.967744500E-3
3.62	-3.399055049E-1	8.160725088E-3	1.464995024E-2
3.63	-3.032563483E-1	6.182719667E-3	1.985821376E-2
3.64	-2.290385979E-1	-4.079527067E-3	1.946462695E-2
3.65	-1.344656489E-1	-2.582323493E-3	4.422797952E-3
3.66	-3.259490658E-2	-2.369177963E-3	-1.580373158E-2
3.67	6.392302866E-2	-6.681451461E-4	-2.702889790E-2
3.68	1.525020922E-1	5.153536697E-3	-2.458762678E-2
3.69	2.349233937E-1	2.025617193E-3	-1.005802685E-2
3.7	2.999329041E-1	-7.961551256E-4	1.087769618E-2
3.71	3.431588480E-1	-3.558749885E-3	2.639918093E-2
3.72	3.552007909E-1	-5.212428036E-3	2.319277425E-2
3.73	3.373904718E-1	-2.254256036E-3	8.136392930E-3
3.74	2.950533247E-1	3.711710573E-3	-1.101988899E-2
3.75	2.333385634E-1	7.640523245E-3	-2.297051841E-2
3.7600000000000002	1.565316430E-1	9.445980020E-3	-1.694427148E-2
3.77	7.563724482E-2	5.816299409E-3	1.091704632E-3
3.7800000000000002	-1.297949825E-2	4.042303089E-3	1.569332729E-2
3.79	-9.264512409E-2	2.542575721E-3	1.485151897E-2
3.8000000000000003	-1.600026404E-1	-1.243136551E-3	7.720514635E-3
3.81	-2.083539047E-1	3.376431667E-3	-2.306487771E-3
3.8200000000000003	-2.302202518E-1	8.136045483E-3	-1.219314873E-2
3.83	-2.229814335E-1	7.400313983E-4	-1.331037678E-2
3.84	-1.851185856E-1	-3.945261676E-3	-5.364602837E-3
3.85	-1.307883941E-1	-7.807462837E-3	3.485914567E-3
3.86	-6.994866480E-2	-1.217103812E-2	1.123810420E-2
3.87	-1.656381233E-2	-9.278776207E-3	1.442252749E-2
3.88	2.543724160E-2	-4.486219665E-3	1.371689967E-2
3.89	5.318455621E-2	-4.727911732E-3	1.068568588E-2
3.9	5.753750197E-2	-6.734779221E-3	2.484670976E-3
3.91	4.088390778E-2	-5.355991449E-3	-1.021161427E-2
3.92	1.157209380E-3	-4.338552680E-3	-2.055417409E-2
3.93	-4.595193790E-2	-1.481376850E-3	-2.204110652E-2
3.94	-9.039528369E-2	6.666974942E-3	-1.244756287E-2
3.95	-1.244947111E-1	1.219216594E-2	4.759355882E-3
3.96	-1.287469889E-1	9.279421210E-3	2.163610967E-2
3.97	-9.840057816E-2	1.019039662E-2	2.259539551E-2
3.98	-4.297099342E-2	8.099038687E-3	1.114887843E-2
3.99	3.346380125E-2	4.233073343E-3	-7.449086806E-3
4.0	1.171366723E-1	2.027354439E-3	-1.613016964E-2
4.01	1.983318220E-1	4.849148893E-4	-1.445140650E-2
4.0200000000000005	2.582044703E-1	3.489331111E-5	-2.982696002E-3
4.03	2.848155336E-1	-1.231394468E-3	1.200914075E-2
4.04	2.680372477E-1	-2.819866282E-3	1.855236941E-2
4.05	2.135014547E-1	-5.895548787E-3	1.313793788E-2
4.0600000000000005	1.234729395E-1	-8.098024667E-3	-3.960904314E-3
4.07	3.769329764E-3	-4.264901001E-3	-1.845462193E-2
4.08	-1.308570216E-1	-2.561888801E-4	-2.158645434E-2
4.09	-2.529639645E-1	3.499669311E-3	-1.354142764E-2
4.1	-3.569975649E-1	6.318710271E-3	2.633329729E-3
4.11	-4.184394633E-1	-3.259053554E-3	1.681179653E-2
4.12	-4.332576548E-1	-6.780445304E-3	2.485727916E-2
4.13	-4.067554049E-1	-3.095763443E-3	2.130030194E-2
4.14	-3.367098747E-1	-1.663733824E-3	7.796299245E-3
4.15	-2.452428876E-1	-1.302736336E-3	-4.456846451E-4
4.16	-1.292829850E-1	-1.310024096E-3	-9.518158116E-3
4.17	-1.067991544E-2	-1.584261384E-3	-1.693301549E-2
4.18	9.797910939E-2	-4.887302842E-3	-1.764096608E-2
4.19	1.817395541E-1	-4.520589316E-3	-1.062332615E-2
4.2	2.401571086E-1	-2.890958469E-3	1.278156534E-3
4.21	2.740793833E-1	-9.914181952E-4	1.082802718E-2
4.22	2.786114764E-1	1.779576821E-3	1.414729387E-2
4.23	2.633075489E-1	4.031166175E-4	1.343506465E-2
4.24	2.277697457E-1	1.591598217E-3	-1.471017500E-3
4.25	1.829391455E-1	2.835398857E-4	-1.401036287E-2
4.26	1.286769523E-1	7.805631963E-4	-1.769890282E-2
4.2700000000000005	7.356131922E-2	1.311955873E-3	-8.787015578E-3
4.28	1.869496260E-2	8.285762780E-3	7.320049128E-3
4.29	-2.939421568E-2	9.070570476E-3	1.888262100E-2
4.3	-6.999080171E-2	7.641267117E-3	1.643578182E-2
4.3100000000000005	-9.487843146E-2	5.636650000E-3	1.670481065E-3
4.32	-1.087797827E-1	4.249327642E-4	-1.558951319E-2
4.33	-1.090572861E-1	-2.038514931E-3	-2.179314159E-2
4.34	-1.010691417E-1	8.227250801E-4	-1.769994661E-2
4.3500000000000005	-8.131245371E-2	9.269035791E-4	-1.870471290E-3
4.36	-5.130564221E-2	-3.522579798E-3	1.555561871E-2
4.37	-1.808872451E-2	-8.170999315E-3	2.454641948E-2
4.38	1.097175211E-2	-1.280910566E-2	2.064391895E-2
4.39	2.699828619E-2	-1.410404183E-2	9.279639631E-3
4.4	2.910213352E-2	-8.548675657E-3	-3.516562681E-3
4.41	1.789506077E-2	-1.276056393E-3	-1.089134494E-2
4.42	-3.213070779E-3	5.898642280E-4	-1.338382115E-2
4.43	-2.820566346E-2	1.074451480E-3	-1.028571477E-2
4.44	-5.207298149E-2	3.476314519E-3	-4.020551344E-3
4.45	-6.991460822E-2	4.374071093E-3	1.576897480E-3
4.46	-6.954231254E-2	7.339827842E-3	7.102199254E-3
4.47	-4.975150620E-2	1.226706028E-2	9.642681986E-3
4.48	1.802880994E-3	9.552549756E-3	4.249770094E-3
4.49	7.142013679E-2	6.510246519E-3	-3.305181166E-3
4.5	1.531353892E-1	2.592949543E-3	-1.160619130E-2
4.51	2.332462061E-1	1.794954269E-4	-1.241890295E-2
4.5200000000000005	3.053014755E-1	-1.644941469E-3	-2.103470012E-3
4.53	3.554667521E-1	-4.573984172E-3	1.025975374E-2
4.54	3.565004547E-1	-3.822502214E-3	1.598663233E-2
4.55	3.130280412E-1	6.427284815E-4	1.412201534E-2
4.5600000000000005	2.259532035E-1	-2.585421231E-3	-1.082090041E-3
4.57	1.135532321E-1	-9.662233367E-4	-1.433403145E-2
4.58	-1.504729769E-2	4.211541920E-3	-2.733918956E-2
4.59	-1.557074343E-1	-3.210212018E-3	-2.551761021E-2
4.6000000000000005	-2.738869381E-1	1.640893516E-3	-3.231722588E-3
4.61	-3.647703934E-1	1.081327801E-2	1.719893423E-2
4.62	-4.145911204E-1	-2.977150380E-4	2.858938823E-2
4.63	-4.136931979E-1	2.349195267E-5	2.501379619E-2
4.64	-3.661254532E-1	-3.954951821E-3	1.061356577E-2
4.65	-2.840551435E-1	-5.438374914E-3	-1.763689609E-3
4.66	-1.851427948E-1	-3.588907360E-3	-1.348891201E-2
4.67	-7.229237343E-2	-1.278110272E-4	-1.509081050E-2
4.68	4.255429569E-2	-1.177822228E-3	-8.628381392E-3
4.69	1.363261736E-1	-4.416124549E-3	-1.468938490E-3
4.7	1.963929576E-1	-9.025338662E-4	4.607081173E-3
4.71	2.275798686E-1	-3.774844179E-5	6.555555859E-3
4.72	2.280499362E-1	-2.609978000E-3	6.982799609E-3
4.73	2.042717473E-1	-3.785459005E-3	3.234789926E-3
4.74	1.615281190E-1	4.764393989E-3	-3.302339217E-3
4.75	1.083768333E-1	-3.831391296E-4	-8.484319350E-3
4.76	5.666591178E-2	-8.686359872E-6	-6.799749037E-3
4.7700000000000005	1.206468729E-2	7.917877322E-3	-3.735108497E-6
4.78	-2.486897429E-2	6.927826573E-3	7.672354661E-3
4.79	-4.962484206E-2	2.157630105E-3	1.586581718E-2
4.8	-6.560470045E-2	7.382609357E-3	1.423902620E-2
4.8100000000000005	-7.257864942E-2	4.898086760E-3	5.002065996E-3
4.82	-7.302358617E-2	1.537393753E-3	-9.385789534E-3
4.83	-7.202185608E-2	3.148731657E-3	-2.046536102E-2
4.84	-6.999935543E-2	2.268558306E-4	-2.065454164E-2
4.8500000000000005	-6.795235704E-2	-5.337446619E-3	-9.868107847E-3
4.86	-6.872136194E-2	-6.045259797E-3	7.676945772E-3
4.87	-7.254091372E-2	-4.934612241E-3	2.236502300E-2
4.88	-7.674705137E-2	-1.104653093E-2	2.363815914E-2
4.89	-8.346060691E-2	-9.353685888E-3	1.399324594E-2
4.9	-9.450701773E-2	-6.257629974E-3	-1.152741919E-3
4.91	-1.087513958E-1	-6.467283990E-3	-1.381097188E-2
4.92	-1.218100255E-1	-2.203645691E-3	-1.365967929E-2
4.93	-1.335541807E-1	4.784902826E-3	-6.312494722E-3
4.94	-1.363984882E-1	2.695804436E-3	3.430162767E-3
4.95	-1.288854777E-1	3.153958444E-3	8.916288713E-3
4.96	-1.095695956E-1	4.996669957E-3	7.808041350E-3
4.97	-7.290616193E-2	4.907096552E-3	1.803633985E-3
4.98	-2.235142571E-2	5.244424965E-3	-3.656579562E-3
4.99	4.383110887E-2	7.485555158E-3	-8.044021222E-3
5.0	1.212838657E-1	4.175951411E-3	-8.452948564E-3
5.01	2.028149460E-1	-8.804474560E-4	-4.711964220E-3
5.0200000000000005	2.809784759E-1	-1.416121683E-4	9.403670820E-4
5.03	3.375019325E-1	7.877212503E-4	6.392217973E-3
5.04	3.610807864E-1	-6.531153607E-3	9.950301562E-3
5.05	3.400811499E-1	1.457284917E-3	1.196363453E-2
5.0600000000000005	2.778259958E-1	4.242459212E-3	6.373068193E-3
5.07	1.928843236E-1	-5.178789586E-3	-6.444315253E-3
5.08	7.348319063E-2	4.563655314E-3	-2.150650092E-2
5.09	-5.095000376E-2	3.167333939E-4	-2.102479329E-2
5.1000000000000005	-1.668939101E-1	-1.907575454E-3	-1.360543599E-2
5.11	-2.606039588E-1	-1.791915202E-3	2.145079792E-3
5.12	-3.270232866E-1	1.977397446E-3	1.784341697E-2
5.13	-3.535022665E-1	-3.215470116E-4	2.471814649E-2
5.14	-3.303674527E-1	-6.294562659E-5	1.557446233E-2
5.15	-2.692054211E-1	-8.110307417E-4	-3.214203325E-4
5.16	-1.753285967E-1	-8.419994738E-3	-1.251902928E-2
5.17	-7.191365866E-2	-7.513623865E-3	-1.683988422E-2
5.18	3.561356894E-2	-2.539476220E-3	-1.132788754E-2
5.19	1.363095611E-1	-4.190305126E-3	6.170920178E-4
5.2	2.067325055E-1	-6.999953989E-3	9.885428547E-3
5.21	2.553061212E-1	2.205471967E-3	9.678980211E-3
5.22	2.675290073E-1	-7.127126779E-3	-2.952133623E-4
5.23	2.438446010E-1	-7.844429936E-3	-7.934621474E-3
5.24	1.990979666E-1	3.130354756E-3	-1.406102528E-2
5.25	1.421783316E-1	5.847833872E-3	-1.121559240E-2
5.26	8.974865695E-2	2.926215220E-3	-3.758839457E-3
5.2700000000000005	4.853878252E-2	1.022178759E-2	3.516618969E-3
5.28	1.934777866E-2	9.701621506E-3	9.511801103E-3
5.29	4.196887715E-3	2.561728928E-3	1.225880275E-2
5.3	3.813205877E-3	5.387168644E-3	9.323469264E-3
5.3100000000000005	1.318574993E-2	7.430096455E-3	2.763203369E-3
5.32	2.702420017E-2	1.754167774E-3	-5.119221949E-3
5.33	3.906293435E-2	2.426206099E-4	-1.256626659E-2
5.34	4.360027443E-2	4.521143708E-3	-1.660340657E-2
5.3500000000000005	3.696029435E-2	-6.067165162E-3	-1.123673787E-2
5.36	1.880074488E-2	-9.016170110E-3	-1.648662654E-4
5.37	-7.892928898E-3	-4.894045217E-3	9.593635287E-3
5.38	-4.906011869E-2	-9.325003352E-3	1.721214900E-2
5.39	-9.091320517E-2	-1.099659182E-2	1.664833448E-2
5.4	-1.368330622E-1	1.810722581E-4	3.760224427E-3
5.41	-1.736260282E-1	-3.263651457E-3	-7.384580275E-3
5.42	-1.997804772E-1	-5.646361139E-3	-1.140641560E-2
5.43	-2.095739307E-1	-9.203880763E-4	-7.288326025E-3
5.44	-2.082891049E-1	-5.921709144E-4	4.534839983E-3
5.45	-1.938532005E-1	-1.598551445E-4	1.266419599E-2
5.46	-1.622154834E-1	5.397991318E-3	1.089727509E-2
5.47	-1.151482333E-1	6.825884418E-3	3.333601354E-3
5.48	-5.413213739E-2	2.278994663E-3	-6.250102561E-3
5.49	1.086234511E-2	4.279808600E-3	-1.398568501E-2
5.5	8.457196127E-2	4.240160260E-3	-1.227980961E-2
5.51	1.538125471E-1	-7.108542300E-4	-2.321939047E-3
5.5200000000000005	2.127085485E-1	8.016899352E-4	7.063395064E-3
5.53	2.640641178E-1	2.149926398E-3	1.390614162E-2
5.54	2.859633888E-1	-3.681391206E-3	1.507553706E-2
5.55	2.774429048E-1	-3.545400228E-3	8.068224290E-3
5.5600000000000005	2.408212205E-1	2.104131963E-3	6.599746768E-4
5.57	1.675917933E-1	-2.758287812E-3	-8.350330920E-3
5.58	7.869075467E-2	-1.782549616E-3	-1.350608595E-2
5.59	-2.948224957E-2	2.197950961E-3	-1.400198061E-2
5.6000000000000005	-1.377309763E-1	1.962804324E-4	-9.734350475E-3
5.61	-2.347820236E-1	3.196374372E-4	-1.091666205E-3
5.62	-3.137507950E-1	3.655208919E-3	9.425646165E-3
5.63	-3.577307450E-1	8.244964221E-4	1.762817989E-2
5.64	-3.615162048E-1	-3.331282003E-3	1.685696890E-2
5.65	-3.268146065E-1	-3.750741820E-4	8.067860890E-3
5.66	-2.626572067E-1	-2.861599481E-4	-2.905864069E-3
5.67	-1.767269040E-1	-6.182440834E-3	-1.035914458E-2
5.68	-7.014441241E-2	-1.893400874E-3	-1.075501790E-2
5.69	3.229868661E-2	-3.924642231E-3	-1.914647719E-3
5.7	1.144379939E-1	-1.384621235E-2	7.265611986E-3
5.71	1.660689789E-1	-4.722956252E-3	1.077718259E-2
5.72	1.921865559E-1	-6.298850527E-4	4.816029126E-3
5.73	1.858091980E-1	-3.348319956E-3	-5.568888563E-3
5.74	1.578143608E-1	1.452079938E-3	-1.417170571E-2
5.75	1.172993554E-1	3.775301997E-3	-1.423655858E-2
5.76	7.245327960E-2	5.661138632E-4	-6.134809157E-3
5.7700000000000005	3.439312557E-2	5.090754414E-3	5.365432428E-3
5.78	1.199232934E-2	1.087840953E-2	1.343457922E-2
5.79	5.940036867E-3	9.222680770E-3	1.488954141E-2
5.8	2.120131255E-2	6.548383867E-3	9.051021070E-3
5.8100000000000005	5.092346917E-2	9.047717128E-3	-2.860417041E-5
5.82	8.592443165E-2	2.405465819E-3	-8.707285731E-3
5.83	1.194299390E-1	-2.765278965E-3	-1.203280165E-2
5.84	1.405633922E-1	1.860030312E-3	-1.149473594E-2
5.8500000000000005	1.486616815E-1	-1.363804664E-3	-6.179193160E-3
5.86	1.316657825E-1	-5.752314102E-3	-8.782962640E-5
5.87	9.331838278E-2	-1.584724547E-3	5.569271528E-3
5.88	3.741806398E-2	-3.985934582E-3	7.783743242E-3
5.89	-2.495357324E-2	-9.484936025E-3	7.915312150E-3
5.9	-8.596320043E-2	-6.773024458E-3	4.770714344E-3
5.91	-1.442778661E-1	-3.601276197E-3	-2.059265713E-3
5.92	-1.904133562E-1	-3.116678588E-3	-5.129508564E-3
5.93	-2.126932954E-1	-3.110912075E-4	-3.709275059E-3
5.94	-2.138334834E-1	2.820686076E-3	1.328016618E-3
5.95	-1.912912165E-1	-4.992096386E-4	8.893514970E-3
5.96	-1.495771402E-1	-1.205006172E-3	1.134328200E-2
5.97	-9.221540817E-2	4.366070077E-3	5.945553063E-3
5.98	-2.369987207E-2	3.363291222E-3	-4.534764233E-3
5.99	4.721389957E-2	3.473824641E-3	-1.386095773E-2
6.0	1.287112797E-1	6.384790216E-3	-1.899590840E-2
6.01	1.981153453E-1	1.008370791E-3	-1.104321828E-2
6.0200000000000005	2.528352941E-1	-2.921950545E-3	2.411123613E-3
6.03	2.871676654E-1	3.289508396E-3	1.438848465E-2
6.04	3.057941485E-1	-2.068508745E-3	1.579224575E-2
6.05	2.979510512E-1	-2.304005688E-3	1.109864129E-2
6.0600000000000005	2.661363899E-1	-7.478144605E-4	-1.322681426E-4
6.07	2.090268281E-1	1.828708648E-4	-9.458393223E-3
6.08	1.334734059E-1	-9.128308997E-4	-1.290518496E-2
6.09	4.633983688E-2	8.728742202E-4	-9.988107143E-3
6.1000000000000005	-5.035558412E-2	6.998235258E-3	-4.465576416E-3
6.11	-1.374819409E-1	4.930252208E-4	2.555514579E-3
6.12	-2.207645928E-1	2.691974018E-3	5.718084672E-3
6.13	-2.730568352E-1	3.588784867E-3	7.466239404E-3
6.140000000000001	-3.004552678E-1	-2.030751884E-3	5.917367774E-3
6.15	-2.962560688E-1	-4.382222321E-3	2.796770433E-3
6.16	-2.632597672E-1	-2.454028454E-3	-3.417717424E-4
6.17	-2.069001179E-1	-6.988044446E-3	-2.248405562E-3
6.18	-1.345320530E-1	-5.518912215E-3	-8.511794297E-4
6.19	-6.123935927E-2	-4.591858326E-3	2.303827312E-3
6.2	7.299268994E-3	-5.912252588E-3	5.641564162E-3
6.21	6.361613363E-2	-7.981244716E-3	7.752344793E-3
6.22	9.552152606E-2	-7.629422369E-3	5.684032511E-3
6.23	1.024666096E-1	-2.666633751E-3	-2.236283919E-3
6.24	8.311379443E-2	-7.960918805E-4	-1.095267644E-2
6.25	5.067636099E-2	4.819738860E-3	-1.485013313E-2
6.26	1.617172578E-2	7.606639233E-3	-9.368963295E-3
6.2700000000000005	-2.265781810E-2	2.624935929E-3	2.181383470E-3
6.28	-4.496220400E-2	3.058765356E-3	1.402210842E-2
6.29	-5.109423150E-2	9.834356133E-3	1.768335948E-2
6.3	-3.697257838E-2	4.230150825E-3	1.562992207E-2
6.3100000000000005	-2.861208593E-3	6.705351285E-3	3.673527402E-3
6.32	4.066438993E-2	7.293498510E-3	-7.916767551E-3
6.33	8.671271536E-2	1.240883008E-3	-1.158020497E-2
6.34	1.248190607E-1	-1.128405806E-3	-9.433816573E-3
6.3500000000000005	1.434516200E-1	9.448232351E-4	-3.136080338E-3
6.36	1.357284019E-1	-2.355624552E-3	3.317360669E-3
6.37	1.050073374E-1	-5.151431288E-3	5.587164262E-3
6.38	5.188577591E-2	-2.570347368E-3	2.879700997E-3
6.390000000000001	-2.001031076E-2	-4.385060954E-3	4.015800766E-4
6.4	-1.037408124E-1	-6.743288066E-3	-2.057336470E-3
6.41	-1.824320876E-1	-3.539845671E-3	-2.819303176E-3
6.42	-2.474787661E-1	-1.704146717E-4	9.725354333E-4
6.43	-2.861599093E-1	-4.259847491E-3	3.910499819E-3
6.44	-3.029403006E-1	-1.325496759E-3	6.842371324E-3
6.45	-2.827724621E-1	3.525608775E-3	9.299133044E-3
6.46	-2.342866531E-1	-2.459248949E-3	8.300441656E-3
6.47	-1.604759203E-1	3.709134842E-5	3.558832506E-3
6.48	-7.680546393E-2	4.806341056E-3	-4.505704543E-3
6.49	1.244089937E-2	-2.497400098E-3	-1.201152022E-2
6.5	1.010607978E-1	8.482342615E-4	-1.491955262E-2
6.51	1.759814126E-1	4.833173057E-3	-1.154175168E-2
6.5200000000000005	2.382404689E-1	-1.384968161E-6	-2.736563317E-3
6.53	2.845458425E-1	-2.961981323E-3	6.690622667E-3
6.54	3.020740856E-1	1.533371482E-3	1.292534480E-2
6.55	2.964696679E-1	-1.419550378E-3	1.353443469E-2
6.5600000000000005	2.693736448E-1	-1.822542856E-3	6.349047647E-3
6.57	2.266106375E-1	4.451879631E-3	-5.651192955E-3
6.58	1.709168894E-1	2.414369932E-3	-1.443557237E-2
6.59	1.023002642E-1	-2.943515060E-3	-1.026242087E-2
6.6000000000000005	3.515391474E-2	5.560070185E-3	-4.482677300E-3
6.61	-3.485839669E-2	3.980028571E-3	3.546141303E-3
6.62	-9.676435360E-2	1.556006618E-3	6.807345829E-3
6.63	-1.433501210E-1	4.186770658E-3	4.999976276E-3
6.640000000000001	-1.712385266E-1	3.536473157E-3	-6.442042259E-4
6.65	-1.823914680E-1	-1.198273011E-3	-4.692537961E-3
6.66	-1.705252910E-1	-1.523224077E-3	-4.039867975E-3
6.67	-1.424762674E-1	7.638551801E-4	-1.056369815E-3
6.68	-9.958548812E-2	-6.746476898E-3	4.746124310E-3
6.69	-4.559714545E-2	-8.683357861E-3	8.860155443E-3
6.7	9.115153058E-3	-4.409227993E-3	7.979151109E-3
6.71	4.903319727E-2	-7.549464431E-3	6.716867784E-3
6.72	7.755425763E-2	-7.965704504E-3	2.686983476E-3
6.73	8.945025209E-2	-5.005327943E-4	-3.667164200E-3
6.74	8.704501384E-2	-1.663095668E-3	-9.284073069E-3
6.75	6.997016001E-2	-1.796105879E-3	-1.148389796E-2
6.76	4.510558944E-2	3.652931645E-3	-9.609877107E-3
6.7700000000000005	1.900406628E-2	6.475511839E-3	-3.147010328E-3
6.78	2.598222828E-4	6.809052751E-3	4.735887463E-3
6.79	-5.622504831E-3	1.008872581E-2	1.138694886E-2
6.8	8.180876400E-3	9.547605862E-3	1.249756107E-2
6.8100000000000005	3.588424276E-2	2.650793169E-3	4.995962480E-3
6.82	7.510081925E-2	4.415090005E-3	-1.447255228E-3
6.83	1.246739110E-1	1.186725334E-3	-8.192676692E-3
6.84	1.671931804E-1	-2.178982522E-3	-9.651387831E-3
6.8500000000000005	1.924711550E-1	-7.144964001E-4	-3.484300276E-3
6.86	1.945056130E-1	-1.337639136E-3	3.965697520E-3
6.87	1.659514440E-1	-4.322281663E-3	7.703974910E-3
6.88	1.153695028E-1	-3.383552259E-3	5.479238706E-3
6.890000000000001	3.800324891E-2	-2.733432419E-3	-1.538608869E-3
6.9	-5.283983017E-2	-4.559677837E-3	-7.105615010E-3
6.91	-1.476350435E-1	-2.950630590E-3	-6.993574809E-3
6.92	-2.404244458E-1	2.650793318E-3	-2.736905715E-3
6.93	-3.102885853E-1	-1.485070846E-4	6.110884050E-3
6.94	-3.474506943E-1	-2.940928012E-3	1.445340291E-2
6.95	-3.486651354E-1	-1.161941559E-3	1.502836226E-2
6.96	-3.196441685E-1	-3.127851810E-3	1.107725749E-2
6.97	-2.593052283E-1	-3.770187336E-3	3.347393381E-3
6.98	-1.727044258E-1	2.534215528E-3	-5.222600604E-3
6.99	-7.619198193E-2	2.468238511E-4	-9.515222212E-3
7.0	1.811486016E-2	-3.090414022E-5	-1.097531666E-2
7.01	1.045360178E-1	-3.112815980E-3	-8.038526292E-3
7.0200000000000005	1.710519344E-1	-3.731486885E-3	-2.986361933E-3
7.03	2.164292682E-1	-2.967153218E-3	3.770090440E-3
7.04	2.323579897E-1	1.506364320E-3	7.987390855E-3
7.05	2.256552590E-1	1.544545394E-3	9.262946844E-3
7.0600000000000005	1.997098336E-1	-1.636424917E-4	5.634829863E-3
7.07	1.610183369E-1	1.096607943E-3	-1.434330238E-3
7.08	1.114943901E-1	1.334446172E-3	-7.967764166E-3
7.09	5.411733206E-2	-1.265354480E-3	-1.053265919E-2
7.1000000000000005	-2.983227269E-3	2.426504504E-3	-3.565534255E-3
7.11	-5.232458896E-2	7.603551354E-3	2.590074123E-3
7.12	-9.109105909E-2	2.270090029E-3	7.279977332E-3
7.13	-1.264167820E-1	5.061275784E-3	7.667871812E-3
7.140000000000001	-1.449915502E-1	3.137104176E-3	5.151992741E-4
7.15	-1.535727710E-1	-1.650761962E-3	-7.452783258E-3
7.16	-1.505567164E-1	-1.599106899E-3	-1.127036505E-2
7.17	-1.377985888E-1	-7.151512787E-4	-6.800683758E-3
7.18	-1.167798196E-1	-3.144132819E-3	2.185903886E-3
7.19	-8.957354843E-2	-4.790640155E-3	1.138609767E-2
7.2	-5.941862316E-2	-6.838720783E-3	1.415451775E-2
7.21	-3.045682871E-2	-9.560217702E-3	9.753452494E-3
7.22	-8.054741761E-3	-8.597719914E-3	2.342958009E-3
7.23	6.463281565E-3	-4.704947969E-3	-4.865513737E-3
7.24	1.260168533E-2	-6.323278210E-4	-9.944432875E-3
7.25	1.076370518E-2	9.740860500E-4	-9.538377425E-3
7.26	6.109181529E-3	4.926730937E-3	-5.754827884E-3
7.2700000000000005	3.962247006E-3	4.231139043E-3	-1.032425500E-3
7.28	2.591432138E-3	1.716096971E-3	3.796907762E-3
7.29	9.238918884E-3	6.077445727E-3	6.234358030E-3
7.3	3.105382318E-2	8.439892365E-3	6.424151005E-3
7.3100000000000005	6.432199667E-2	6.375213500E-3	4.056059221E-3
7.32	1.083618916E-1	6.214897905E-3	2.842010054E-4
7.33	1.571568152E-1	3.137854179E-3	-3.612443420E-3
7.34	2.042328889E-1	9.916386940E-5	-4.538466574E-3
7.3500000000000005	2.406300690E-1	-5.234279565E-5	-3.585736230E-3
7.36	2.538086258E-1	-8.182688262E-4	8.661958605E-4
7.37	2.434299291E-1	-1.418008234E-3	5.506197313E-3
7.38	2.040629209E-1	-2.450414262E-4	4.929529527E-3
7.390000000000001	1.405281354E-1	-2.170880149E-3	-2.181478421E-4
7.4	5.660216979E-2	-3.272997765E-3	-6.607566585E-3
7.41	-4.061233324E-2	-6.404297115E-4	-1.140295689E-2
7.42	-1.331005139E-1	-2.914998399E-3	-7.536804599E-3
7.43	-2.214455162E-1	-1.030531254E-3	1.304098466E-3
7.44	-2.804683482E-1	2.600994233E-3	1.189121852E-2
7.45	-3.052425896E-1	-9.050753972E-4	1.867546687E-2
7.46	-2.957125463E-1	-3.715292552E-4	1.641540436E-2
7.47	-2.453391516E-1	-1.455226028E-3	5.204412680E-3
7.48	-1.750987253E-1	-2.006730739E-3	-3.893384091E-3
7.49	-8.466730270E-2	-2.367419467E-4	-9.852011780E-3
7.5	1.178401838E-2	1.713989649E-3	-1.107430806E-2
7.51	1.025068320E-1	1.410630728E-5	-7.848428389E-3
7.5200000000000005	1.761898374E-1	-2.675926979E-3	-1.818412467E-3
7.53	2.263082494E-1	-2.488044181E-3	2.671556076E-3
7.54	2.525991679E-1	-2.519086338E-3	5.045462887E-3
7.55	2.474036212E-1	-2.467918626E-3	5.388344248E-3
7.5600000000000005	2.199154104E-1	1.742911909E-3	2.845636705E-3
7.57	1.766180981E-1	5.171600256E-3	-5.446754900E-4
7.58	1.263418784E-1	3.128637532E-3	-2.134954152E-3
7.59	7.428123339E-2	1.146507749E-3	-2.658257940E-3
7.6000000000000005	2.406263302E-2	5.965326253E-3	-4.101311174E-4
7.61	-1.936460346E-2	4.997564623E-3	1.286964722E-3
7.62	-5.178088165E-2	5.724685728E-3	3.267843420E-3
7.63	-7.538139929E-2	7.607365523E-3	5.123545030E-3
7.640000000000001	-8.825147499E-2	2.351230878E-3	2.336241105E-3
7.65	-9.477933407E-2	-2.252715457E-3	-4.621936009E-3
7.66	-9.756265041E-2	-2.373151123E-3	-9.036518757E-3
7.67	-9.876291811E-2	-2.738791445E-3	-8.634857951E-3
7.68	-9.889864033E-2	-4.066821693E-3	-1.573519822E-3
7.69	-9.921519388E-2	-4.464582529E-3	8.105932573E-3
7.7	-9.950479736E-2	-5.443332221E-3	1.455191264E-2
7.71	-9.862240824E-2	-8.071558536E-3	1.440170999E-2
7.72	-9.878807154E-2	-6.335990654E-3	8.419690945E-3
7.73	-1.005960931E-1	-2.086643058E-3	-2.215966210E-3
7.74	-1.014419925E-1	-3.723232898E-3	-9.819481970E-3
7.75	-1.031240677E-1	-3.228050730E-4	-9.426740309E-3
7.76	-9.923204531E-2	3.347027574E-3	-5.754998824E-3
7.7700000000000005	-9.048746576E-2	2.292620663E-3	4.095519575E-4
7.78	-7.710547831E-2	2.043860310E-3	6.259696332E-3
7.79	-5.294863443E-2	3.440799185E-3	5.773798326E-3
7.8	-2.357487526E-2	2.714021335E-3	2.917943117E-3
7.8100000000000005	1.412523385E-2	3.439090408E-3	-4.156515495E-4
7.82	5.886843524E-2	5.086682240E-3	-2.998395482E-3
7.83	1.081745757E-1	3.986183304E-3	-1.833509108E-3
7.84	1.558507908E-1	5.979090669E-4	1.346041063E-3
7.8500000000000005	1.930250825E-1	7.055519261E-4	1.476103166E-3
7.86	2.126738749E-1	-2.094562262E-4	3.077189771E-3
7.87	2.103291913E-1	-8.615961539E-4	4.001841330E-3
7.88	1.859938558E-1	1.121980085E-3	3.101697350E-3
7.890000000000001	1.356750061E-1	4.542187623E-4	-2.646091129E-3
7.9	6.544976483E-2	-3.055068578E-3	-7.758477828E-3
7.91	-2.307153840E-2	-2.134737100E-3	-9.521535536E-3
7.92	-1.122469341E-1	-8.418676517E-4	-8.245900771E-3
7.930000000000001	-1.955766007E-1	-1.289327718E-3	-4.536594711E-3
7.94	-2.616430812E-1	1.003583535E-3	5.764544960E-3
7.95	-3.011968821E-1	1.819414905E-3	1.560521598E-2
7.96	-3.054992958E-1	-1.519217683E-3	1.674954064E-2
7.97	-2.780331360E-1	-1.031297322E-3	1.184530864E-2
7.98	-2.200026666E-1	-6.825404977E-5	7.846511397E-4
7.99	-1.419954556E-1	-2.710160947E-3	-7.868631243E-3
8.0	-4.767211067E-2	-2.739471501E-3	-1.030279321E-2
8.01	4.759571830E-2	-2.255701011E-3	-8.763723554E-3
8.02	1.296403732E-1	-4.477314975E-3	-2.499533166E-3
8.03	1.985570301E-1	-4.400225904E-3	5.071245531E-3
8.040000000000001	2.381013788E-1	6.172540524E-4	4.848677019E-3
8.05	2.472654771E-1	6.979894781E-4	1.001655265E-3
8.06	2.343266756E-1	-1.256980300E-3	-2.243024713E-3
8.07	2.037445987E-1	4.619784925E-3	-6.146672865E-3
8.08	1.584404887E-1	5.382263697E-3	-4.520418884E-3
8.09	1.104607288E-1	3.169696004E-3	-5.079971769E-4
8.1	6.747104297E-2	8.462765787E-3	2.566686967E-3
8.11	3.626865636E-2	6.998663705E-3	3.808981279E-3
8.120000000000001	1.874484123E-2	2.829489547E-3	4.756723403E-3
8.13	1.025785188E-2	4.991258128E-3	2.502276933E-3
8.14	9.538862315E-3	4.440727512E-3	-1.621377318E-3
8.15	1.300956517E-2	6.290142518E-4	-5.153942585E-3
8.16	1.780794019E-2	-9.313346244E-4	-7.721826832E-3
8.17	2.089377426E-2	-7.184143000E-4	-8.159764536E-3
8.18	1.628415893E-2	-3.680242326E-3	-4.595979354E-3
8.19	2.492790325E-3	-6.144163038E-3	2.644640306E-3
8.2	-1.565479575E-2	-4.285638684E-3	9.814373995E-3
8.21	-4.032112641E-2	-5.284123777E-3	1.168233059E-2
8.22	-6.710092519E-2	-7.889780903E-3	8.900947452E-3
8.23	-9.098475316E-2	-1.415996046E-3	2.737269321E-3
8.24	-1.101433401E-1	-3.957575633E-3	-3.913175647E-3
8.25	-1.209970628E-1	-3.774668302E-3	-7.792714736E-3
8.26	-1.187585818E-1	1.014500532E-3	-5.413411757E-3
8.27	-1.068015915E-1	1.796331349E-3	-1.957609885E-3
8.28	-8.301679748E-2	1.950685202E-3	4.205843952E-3
8.290000000000001	-5.110104931E-2	4.869389852E-3	5.154200246E-3
8.3	-1.096456020E-2	5.654955920E-3	8.695850079E-4
8.31	3.510641287E-2	4.078886483E-3	-3.249868056E-3
8.32	8.437563549E-2	4.289384756E-3	-4.945157668E-3
8.33	1.306764413E-1	3.047146867E-3	-4.134400311E-3
8.34	1.705254820E-1	-2.905330481E-4	2.923116138E-4
8.35	2.011982173E-1	1.464741701E-3	6.726238773E-3
8.36	2.163505386E-1	2.988335665E-3	9.134542416E-3
8.370000000000001	2.163352216E-1	-4.781765964E-3	8.065363267E-3
8.38	1.921691145E-1	7.367459322E-5	2.677389482E-3
8.39	1.476292933E-1	3.571475782E-4	-2.220204970E-3
8.4	8.540308175E-2	-5.115482361E-3	-8.294423266E-3
8.41	4.108539998E-3	1.353884945E-3	-9.993305286E-3
8.42	-7.848033267E-2	1.073186488E-3	-7.744481223E-3
8.43	-1.599064652E-1	-3.138784763E-4	-2.992142631E-3
8.44	-2.328011690E-1	1.790247442E-3	3.633418899E-3
8.45	-2.886335026E-1	2.366362337E-3	1.006201396E-2
8.46	-3.163022458E-1	-2.073062088E-3	1.285444866E-2
8.47	-3.134449135E-1	-2.462646391E-3	1.103451381E-2
8.48	-2.816646705E-1	-1.084799158E-3	5.907296011E-3
8.49	-2.243036376E-1	-3.077689420E-3	-4.661456084E-5
8.5	-1.475342142E-1	-4.340467628E-3	-6.144364974E-3
8.51	-6.280034651E-2	-1.093163516E-3	-7.730477950E-3
8.52	1.516028546E-2	-4.343616634E-3	-3.065942572E-3
8.53	7.973588392E-2	-5.450956743E-3	3.458937818E-3
8.540000000000001	1.314301337E-1	1.261198793E-3	3.780695299E-3
8.55	1.551710349E-1	-6.131454029E-5	2.804358841E-3
8.56	1.510129528E-1	1.262415441E-4	-1.992482640E-3
8.57	1.325802658E-1	4.617527928E-3	-7.561298140E-3
8.58	9.827179988E-2	2.886591651E-3	-5.223541270E-3
8.59	6.064572984E-2	2.838850368E-3	-2.917543145E-4
8.6	2.629722775E-2	5.453340261E-3	5.592379594E-3
8.61	-6.520713070E-4	5.717690522E-3	9.751416292E-3
8.620000000000001	-1.653023670E-2	3.247448576E-3	9.264376987E-3
8.63	-1.655658066E-2	5.177659405E-3	4.138329939E-3
8.64	-5.013510426E-3	4.414841060E-3	-1.911786696E-3
8.65	1.239579162E-2	1.510610441E-3	-8.606719091E-3
8.66	3.146644907E-2	1.763060951E-3	-9.373467222E-3
8.67	4.276996802E-2	1.555589262E-3	-7.936757704E-3
8.68	4.480369936E-2	-2.120181199E-3	-2.997430464E-3
8.69	3.342415005E-2	-5.560823870E-3	1.561967063E-3
8.700000000000001	7.494980648E-3	-6.684879247E-3	5.392843162E-3
8.71	-2.516455155E-2	-7.490716932E-3	6.408611138E-3
8.72	-6.480357581E-2	-7.425946135E-3	6.218834402E-3
8.73	-1.057728776E-1	-4.553996820E-3	4.456286037E-3
8.74	-1.385839656E-1	-1.577269368E-3	2.252764866E-4
8.75	-1.608076607E-1	-1.876546916E-3	-2.399686476E-3
8.76	-1.657259332E-1	1.671660517E-3	-1.988099715E-3
8.77	-1.506207965E-1	6.228249840E-4	-1.848393647E-4
8.78	-1.206878071E-1	7.783820228E-4	1.035061365E-3
8.790000000000001	-7.264396300E-2	1.971797917E-3	3.280779222E-3
8.8	-1.782395525E-2	5.786440729E-3	5.103671065E-4
8.81	4.631900735E-2	3.239495289E-3	-2.790303445E-3
8.82	1.091100384E-1	5.583211754E-3	-7.489331862E-3
8.83	1.681273020E-1	3.280372743E-3	-7.852815291E-3
8.84	2.164858113E-1	-7.806446297E-5	-1.735347630E-3
8.85	2.500501388E-1	1.743513723E-3	4.069180000E-3
8.86	2.679516689E-1	1.044417859E-3	8.606672566E-3
8.870000000000001	2.655183270E-1	-1.213981528E-5	8.820131182E-3
8.88	2.447235597E-1	1.279202972E-3	4.334532121E-3
8.89	2.058428682E-1	1.729312960E-3	-2.731774947E-3
8.9	1.548579905E-1	5.654850177E-4	-8.078420255E-3
8.91	9.141795715E-2	1.385364216E-3	-9.886960445E-3
8.92	1.838702659E-2	2.264308912E-3	-9.222178727E-3
8.93	-5.401696785E-2	-1.650808359E-4	-3.208880445E-3
8.94	-1.248308574E-1	1.058170471E-3	2.310701707E-3
8.950000000000001	-1.807306801E-1	1.341644202E-3	5.486246446E-3
8.96	-2.162941491E-1	-1.040108230E-3	6.662317613E-3
8.97	-2.284446346E-1	-2.862112007E-3	5.961341197E-3
8.98	-2.159078293E-1	-2.201283739E-3	2.956603691E-3
8.99	-1.861165515E-1	-3.017239921E-3	7.091550733E-4
9.0	-1.340319522E-1	-3.181627200E-3	-8.543728007E-4
9.01	-7.129628972E-2	-3.379345643E-3	-1.328712893E-3
9.02	-7.875997975E-3	-3.234958867E-3	-3.369021763E-5
9.03	5.070913981E-2	-3.457101907E-3	1.953951219E-3
9.040000000000001	9.676955829E-2	-3.362292375E-3	2.075430253E-3
9.05	1.236383918E-1	-2.158537069E-3	-5.978719143E-4
9.06	1.319647063E-1	-1.542980705E-3	-3.325736361E-3
9.07	1.229467387E-1	4.936996050E-4	-5.373071047E-3
9.08	9.861043175E-2	2.412902723E-3	-5.518892249E-3
9.09	6.620919953E-2	5.227912117E-3	-4.322198531E-3
9.1	3.504914592E-2	4.446444187E-3	3.593012193E-3
9.11	8.338473244E-3	5.683768068E-3	8.460852006E-3
9.120000000000001	-4.977471571E-3	4.006503768E-3	1.132250509E-2
9.13	-6.077619439E-3	5.498179581E-3	6.466290487E-3
9.14	2.663915376E-3	5.150557864E-3	2.735520172E-4
9.15	1.963933073E-2	3.485710820E-3	-6.235032220E-3
9.16	3.846483282E-2	1.104427815E-3	-8.869099689E-3
9.17	5.315105766E-2	-7.383441798E-4	-7.471330023E-3
9.18	5.593766988E-2	-1.888693801E-3	-2.925495313E-3
9.19	4.616457752E-2	-3.742412839E-3	3.031796339E-3
9.200000000000001	1.687802281E-2	-4.134915243E-3	4.577172905E-3
9.21	-2.631232937E-2	-4.408271339E-3	4.187723497E-3
9.22	-7.674026419E-2	-5.649204535E-3	4.821274162E-4
9.23	-1.388072131E-1	-4.829706611E-3	6.373341685E-4
9.24	-1.917912695E-1	-2.938581888E-3	1.913872732E-3
9.25	-2.323572822E-1	-1.224189976E-3	2.427433393E-3
9.26	-2.548325621E-1	-7.217748723E-4	3.660932878E-3
9.27	-2.513236224E-1	-9.646430871E-4	5.621897081E-3
9.28	-2.273432722E-1	-5.167041891E-4	4.854876554E-3
9.290000000000001	-1.803744468E-1	-1.929607338E-4	2.289359476E-3
9.3	-1.189349705E-1	9.143647641E-4	-2.064274608E-4
9.31	-4.788057541E-2	2.589491792E-3	-2.984658256E-3
9.32	2.994872938E-2	2.496606682E-3	-5.858472487E-3
9.33	1.007048596E-1	2.648686145E-3	-6.621698042E-3
9.34	1.597720773E-1	9.339191484E-4	-4.710472650E-3
9.35	2.002720828E-1	-2.838807374E-4	1.910684991E-3
9.36	2.262740339E-1	1.719928060E-3	9.342905382E-3
9.370000000000001	2.297534336E-1	3.312052009E-3	9.929423211E-3
9.38	2.095006990E-1	1.008581297E-3	8.460906032E-3
9.39	1.751135791E-1	2.350081477E-3	2.005297044E-3
9.4	1.318358005E-1	1.950345460E-3	-3.983663222E-3
9.41	8.030220049E-2	-3.682599475E-4	-9.811007704E-3
9.42	2.185529335E-2	5.610217990E-4	-8.870626772E-3
9.43	-3.583830359E-2	2.829403788E-3	-4.068114105E-3
9.44	-8.926640077E-2	2.548779125E-3	1.214875508E-3
9.450000000000001	-1.346530115E-1	1.992292229E-3	4.517656663E-3
9.46	-1.647774373E-1	2.266571943E-3	5.377069810E-3
9.47	-1.797404590E-1	-9.429803456E-4	3.610669296E-3
9.48	-1.781949975E-1	-3.027113561E-3	-2.025413154E-4
9.49	-1.613629393E-1	-1.766340663E-3	-1.692646014E-3
9.5	-1.291571134E-1	-3.203792790E-3	1.731505397E-4
9.51	-8.517329444E-2	-5.364036288E-3	4.439588884E-3
9.52	-3.808881172E-2	-2.455074833E-3	3.939079853E-3
9.53	1.270513418E-2	-4.032691786E-3	3.724322568E-3
9.540000000000001	5.644871126E-2	-6.635645356E-3	1.890016893E-3
9.55	9.017515550E-2	-4.046650853E-3	-2.739595076E-3
9.56	1.097084524E-1	-1.512708638E-3	-5.249460792E-3
9.57	1.151309082E-1	-1.268327317E-4	-6.612444261E-3
9.58	1.111240416E-1	2.039522874E-3	-5.466301420E-3
9.59	9.730604338E-2	3.818953817E-3	-1.623349922E-3
9.6	8.048649679E-2	4.713829134E-3	3.329759935E-3
9.61	6.725134979E-2	6.067031745E-3	7.480169633E-3
9.620000000000001	6.047612214E-2	6.764114419E-3	8.058520360E-3
9.63	6.224982686E-2	5.199322769E-3	5.846931092E-3
9.64	7.260694382E-2	4.443492746E-3	2.493127861E-3
9.65	9.298871501E-2	4.229152454E-3	-2.858842075E-3
9.66	1.173924531E-1	-7.461001239E-4	-6.951192519E-3
9.67	1.361629809E-1	-1.699951019E-3	-7.193425795E-3
9.68	1.455626215E-1	5.228268840E-4	-5.271390578E-3
9.69	1.386568003E-1	-2.377620831E-3	-2.121326240E-4
9.700000000000001	1.099366927E-1	-4.810611183E-3	3.555254087E-3
9.71	6.657651009E-2	-1.637655858E-3	2.909917673E-3
9.72	6.210405146E-3	-1.364626730E-3	2.390358188E-4
9.73	-6.113934626E-2	-3.309619453E-3	-1.794561049E-3
9.74	-1.289423667E-1	-3.628718879E-3	-2.304853102E-3
9.75	-1.859462773E-1	-2.940436375E-3	1.768678649E-4
9.76	-2.256855409E-1	-1.914387730E-3	4.632602515E-3
9.77	-2.462669162E-1	-1.634918010E-3	7.713080996E-3
9.78	-2.380480243E-1	-1.617130553E-3	6.732441742E-3
9.790000000000001	-2.067018552E-1	1.860892351E-4	3.274881407E-3
9.8	-1.517678119E-1	-2.220269953E-4	-7.607456626E-4
9.81	-8.107729901E-2	2.611528609E-3	-7.691339156E-3
9.82	2.929492547E-3	2.864355866E-3	-8.640531203E-3
9.83	7.349427591E-2	8.647191265E-4	-6.072953841E-3
9.84	1.387221639E-1	4.806418272E-4	-5.964147530E-3
9.85	1.863370194E-1	3.014872337E-4	2.009201749E-3
9.86	2.136666813E-1	-1.750475294E-4	6.393521781E-3
9.870000000000001	2.139629034E-1	4.565893158E-4	6.800332094E-3
9.88	1.957405280E-1	1.329982533E-3	5.832090568E-3
9.89	1.630048818E-1	2.184397044E-3	3.402710465E-3
9.9	1.168200009E-1	2.349843540E-3	-6.954607049E-4
9.91	6.219778481E-2	1.385058670E-3	-4.645876400E-3
9.92	1.134572555E-2	1.299822742E-3	-6.365785457E-3
9.93	-4.583177616E-2	4.093060169E-3	-4.027322432E-3
9.94	-9.029299348E-2	1.862384334E-3	7.359214282E-5
9.950000000000001	-1.295169939E-1	3.443593696E-3	1.854864407E-3
9.96	-1.551048097E-1	2.128615788E-3	2.094008542E-3
9.97	-1.718752265E-1	-1.091958378E-3	5.884469245E-4
9.98	-1.772106253E-1	-3.050470974E-3	-1.669515273E-3
9.99	-1.723097907E-1	-3.293722000E-3	-3.235295912E-3
10.0	-1.584033509E-1	-4.798220604E-3	-6.407446994E-4
10.01	-1.367085811E-1	-5.187033497E-3	4.752460237E-3
10.02	-1.102627634E-1	-4.586334397E-3	8.010269410E-3
10.03	-8.065453306E-2	-4.982324769E-3	6.907930444E-3
10.040000000000001	-5.220360924E-2	-5.052982595E-3	4.723402360E-3
10.05	-2.724070524E-2	-2.948000606E-3	1.006094316E-3
10.06	-8.892980628E-3	-1.131820802E-3	-7.322693405E-3
10.07	4.613045541E-3	-2.232974770E-3	-8.561938401E-3
10.08	1.240191261E-2	9.154762068E-4	-6.289342543E-3
10.09	1.595793896E-2	2.618282464E-3	-3.438146170E-3
10.1	1.763686131E-2	2.192516102E-3	1.837460539E-3
10.11	2.018823992E-2	4.238819305E-3	3.004385332E-3
10.120000000000001	2.603507261E-2	5.316210363E-3	5.379072526E-3
10.13	3.947291030E-2	4.316805293E-3	5.714119221E-3
10.14	5.827861118E-2	6.114612881E-3	2.814480048E-3
10.15	8.201827043E-2	4.533327271E-3	-2.018394581E-3
10.16	1.083495351E-1	1.437412133E-3	-3.933574347E-3
10.17	1.328262390E-1	3.083063402E-4	-3.527616164E-3
10.18	1.473057927E-1	1.430133108E-3	-3.204911849E-3
10.19	1.465925675E-1	1.214898806E-3	-1.682306753E-3
10.200000000000001	1.305889873E-1	-1.390558429E-3	2.276029444E-4
10.21	9.810482630E-2	-2.339783008E-3	8.821078109E-4
10.22	5.189483865E-2	-3.813407292E-3	-2.411758006E-4
10.23	-1.479334583E-2	-4.277068104E-3	-3.471902510E-3
10.24	-7.811471843E-2	-4.342332983E-3	-3.091657254E-3
10.25	-1.454157099E-1	-1.774800195E-3	-1.471846695E-3
10.26	-1.973295866E-1	-2.270535853E-3	4.503294328E-3
10.27	-2.285733305E-1	1.887713347E-3	9.158407548E-3
10.28	-2.318693235E-1	-9.249272809E-4	1.091145538E-2
10.290000000000001	-2.086362220E-1	9.059096923E-4	6.794991032E-3
10.3	-1.628193053E-1	3.984506497E-4	1.584497055E-3
10.31	-9.391606212E-2	-9.543707489E-4	-4.134393177E-3
10.32	-1.304864277E-2	-7.985812685E-4	-9.282258650E-3
10.33	7.048083971E-2	-1.039342310E-3	-9.215253493E-3
10.34	1.436287807E-1	-1.493883155E-3	-4.690392169E-3
10.35	2.023809802E-1	-1.151511648E-3	-7.923577602E-4
10.36	2.463684763E-1	-9.849462173E-4	3.387228349E-3
10.370000000000001	2.608426632E-1	-3.053757808E-4	3.909727434E-3
10.38	2.520819411E-1	-1.597736127E-3	3.797324011E-3
10.39	2.238886944E-1	1.500050799E-3	6.110367462E-4
10.4	1.820320572E-1	4.456979308E-3	-2.260450026E-3
10.41	1.312685669E-1	3.094733714E-3	-7.657056643E-4
10.42	7.855924283E-2	4.336244292E-3	-2.814726435E-3
10.43	3.177679554E-2	6.539064823E-3	-2.047465716E-3
10.44	-9.610369671E-3	3.765282890E-3	-7.207864475E-5
10.450000000000001	-4.395132428E-2	1.580431207E-3	1.151297253E-3
10.46	-6.564542607E-2	7.876840206E-4	4.934985579E-4
10.47	-7.868673672E-2	-1.388703760E-3	-1.372445723E-3
10.48	-8.502658238E-2	-2.841888692E-3	-2.803186080E-3
10.49	-8.608549526E-2	-1.287816984E-3	-2.830593031E-3
10.5	-8.381732497E-2	-2.583598097E-3	-1.591741626E-3
10.51	-8.029877980E-2	-4.637287918E-3	2.026491442E-3
10.52	-7.611077246E-2	-3.966738250E-3	6.252909611E-3
10.53	-7.004289974E-2	-3.644999590E-3	7.811590532E-3
10.540000000000001	-6.527460565E-2	-6.592741337E-3	7.381578782E-3
10.55	-5.848753204E-2	-4.919673230E-3	2.285715440E-3
10.56	-5.510272549E-2	-1.457299502E-3	-2.860587563E-3
10.57	-4.843642004E-2	-3.239928459E-3	-8.077603182E-3
10.58	-4.209400416E-2	-7.337149116E-4	-7.789280765E-3
10.59	-3.315490743E-2	1.153499792E-3	-5.123609704E-3
10.6	-2.150245106E-2	1.568512587E-3	-6.038317088E-4
10.61	-8.061311914E-3	2.811118808E-3	3.530899643E-3
10.620000000000001	8.050252178E-3	4.563348452E-3	4.413347718E-3
10.63	2.809174058E-2	3.445750213E-3	3.417190963E-3
10.64	4.985141656E-2	3.291714524E-3	7.545642441E-4
10.65	7.403823982E-2	4.293215547E-3	-8.621727434E-4
10.66	9.638947011E-2	2.972594402E-3	-1.341768354E-3
10.67	1.171880090E-1	-1.528851590E-4	-5.163061148E-4
10.68	1.278886719E-1	-4.941504614E-4	3.127618189E-4
10.69	1.272142469E-1	-1.741874137E-3	3.712526153E-4
10.700000000000001	1.113100256E-1	-2.733862128E-3	7.601035627E-4
10.71	7.787937732E-2	-1.241855719E-3	-7.577978484E-4
10.72	2.965615789E-2	-4.125468010E-4	-2.845678382E-3
10.73	-2.883007201E-2	-1.269185867E-3	-3.874810835E-3
10.74	-9.345076545E-2	-1.796914964E-3	-3.087978553E-3
10.75	-1.581217006E-1	-1.489216986E-3	-1.917412104E-4
10.76	-2.182573878E-1	-9.937562308E-4	3.069692949E-3
10.77	-2.615438115E-1	6.237414862E-5	6.810613969E-3
10.78	-2.809480303E-1	-8.985868094E-4	1.049639720E-2
10.790000000000001	-2.749340392E-1	-1.706033653E-3	1.040581111E-2
10.8	-2.430335556E-1	-2.355961230E-3	5.414434770E-3
10.81	-1.898936955E-1	-3.712529525E-3	-1.608706445E-3
10.82	-1.154935332E-1	-9.768879290E-4	-5.411437815E-3
10.83	-3.717585094E-2	-2.203315422E-3	-9.239601461E-3
10.84	4.165533228E-2	-5.719437661E-4	-7.546551229E-3
10.85	1.132248152E-1	-1.718744895E-4	-2.607892653E-3
10.86	1.679501308E-1	-1.176290538E-3	2.592531541E-3
10.870000000000001	1.993629639E-1	-5.996063649E-4	3.656718217E-3
10.88	2.049998379E-1	-4.904420947E-4	2.863570850E-3
10.89	1.926686008E-1	-1.178451585E-3	1.896672833E-3
10.9	1.632014128E-1	1.420725073E-4	2.054017292E-5
10.91	1.219046558E-1	3.132698212E-3	-1.405366561E-3
10.92	7.655521880E-2	2.103383515E-3	-2.427612749E-4
10.93	3.823388475E-2	2.164381540E-3	7.128879251E-4
10.94	5.560352038E-3	8.059350424E-3	1.211077128E-3
10.950000000000001	-1.964974453E-2	3.693707559E-3	2.980944017E-3
10.96	-3.220226586E-2	1.653178553E-3	-1.257132453E-3
10.97	-3.335431095E-2	3.522645350E-3	-6.220017827E-3
10.98	-3.239075002E-2	-6.917198428E-5	-5.511639674E-3
10.99	-2.661078091E-2	-2.393003901E-3	-4.562951874E-3
11.0	-2.256819059E-2	-1.497282167E-3	-2.735805753E-3
11.01	-2.250578471E-2	-2.559391597E-3	7.417249636E-4
11.02	-2.649830052E-2	-5.506982092E-3	4.851271013E-3
11.03	-3.321924512E-2	-2.783107496E-3	7.756749073E-3
11.040000000000001	-4.204869140E-2	-3.328105949E-3	8.101090866E-3
11.05	-5.203467359E-2	-8.284005251E-3	5.545660356E-3
11.06	-5.852047766E-2	-3.219102381E-3	1.482616030E-3
11.07	-6.031679395E-2	-9.696454522E-4	-3.876391880E-3
11.08	-5.671533515E-2	-2.351442759E-3	-5.065759545E-3
11.09	-4.426329159E-2	2.288517825E-3	-5.116407812E-3
11.1	-2.394762461E-2	4.113363300E-3	-3.035768172E-3
11.11	3.255679114E-3	2.891745541E-3	1.625486711E-3
11.120000000000001	3.437744456E-2	4.382227552E-3	3.126536197E-3
11.13	6.891917238E-2	5.268657635E-3	1.252375595E-3
11.14	1.043312666E-1	3.157241013E-3	6.027050520E-5
11.15	1.372834559E-1	1.778865117E-3	-9.493734866E-4
11.16	1.662306631E-1	3.533096931E-3	-3.159540415E-3
11.17	1.879035915E-1	-1.826259111E-5	8.060897383E-4
11.18	1.963864094E-1	-1.862969676E-3	3.424600754E-3
11.19	1.926572179E-1	3.259057529E-3	4.184094823E-3
11.200000000000001	1.765064002E-1	1.217662334E-3	1.407763662E-3
11.21	1.434750598E-1	-1.422171531E-3	-2.466768049E-3
11.22	9.782053207E-2	-7.973126792E-4	-4.546448747E-3
11.23	4.160083096E-2	8.273689189E-4	-5.324796340E-3
11.24	-2.097611950E-2	-9.666741689E-4	-5.858029577E-3
11.25	-8.588262586E-2	-1.995494111E-3	-4.403990126E-3
11.26	-1.501739608E-1	8.423091211E-4	-1.387535540E-4
11.27	-1.997256981E-1	-6.173882148E-4	5.780245164E-3
11.28	-2.337405814E-1	-7.304333848E-4	8.366828064E-3
11.290000000000001	-2.445478533E-1	-8.784936694E-4	4.693652707E-3
11.3	-2.376236235E-1	-3.416114774E-3	-1.456466069E-2
11.31	-2.226838091E-1	1.066060298E-1	-9.296111643E-2
11.32	-1.704579303E-1	-1.070360499E-1	-1.527393337E-2
11.33	-1.156781136E-1	6.455335525E-2	1.754372249E-2
11.34	6.756383284E-3	8.274565366E-2	7.474457393E-2
11.35	2.555695596E-2	-2.965951408E-2	9.527977532E-2
11.36	8.330150478E-2	-8.211391234E-2	6.801448797E-2
11.370000000000001	1.010588247E-1	3.119810144E-2	-5.485851484E-3
11.38	4.390331750E-2	3.903136112E-2	-5.430013948E-2
11.39	-2.568744655E-2	-4.344416424E-2	-4.456553299E-2
11.4	-9.226729169E-2	2.749609218E-2	-2.549024065E-2
11.41	-1.753661333E-1	1.139922777E-1	-3.174929967E-2
11.42	-2.233501564E-1	-1.172376058E-1	1.638294826E-2
11.43	-2.583465622E-1	-5.445074746E-3	3.409120816E-2
11.44	-2.967754504E-1	1.550464593E-1	3.164206585E-2
11.450000000000001	-2.461077010E-1	-8.395514461E-2	5.213007579E-2
11.46	-1.637448561E-1	1.959534474E-2	9.429486479E-3
11.47	2.269477592E-2	1.377791120E-1	-4.092493550E-2
11.48	2.415501965E-1	-8.192715975E-2	-5.819680562E-2
11.49	4.711814989E-1	-8.105758759E-2	-4.516202321E-2
11.5	6.316196239E-1	8.168648109E-2	-1.877534526E-2
11.51	7.321483208E-1	-4.977168113E-2	6.027676919E-2
11.52	7.241250378E-1	-3.370667193E-2	8.741513588E-2
11.53	5.986580020E-1	7.293913173E-2	5.142779991E-2
11.540000000000001	4.012742818E-1	1.543448714E-2	-1.417359700E-2
11.55	1.606610371E-1	-7.848717364E-2	-8.859595647E-2
11.56	-8.723868961E-2	3.733625091E-2	-1.219101146E-1
11.57	-3.561538262E-1	4.364745393E-2	-8.437356142E-2
11.58	-5.960186051E-1	-5.366168268E-2	1.514023884E-2
11.59	-7.586215455E-1	6.879434248E-2	8.333796209E-2
11.6	-8.006555830E-1	6.895964769E-2	1.289361442E-1
11.61	-7.429692088E-1	-9.486639981E-2	7.930972703E-2
11.620000000000001	-5.585584333E-1	9.295704463E-3	9.542616741E-3
11.63	-3.285822283E-1	5.595661972E-3	-6.591592183E-2
11.64	-1.311919629E-1	-6.346824365E-2	-6.732728352E-2
11.65	7.923776452E-2	-1.349154656E-3	-5.265749163E-2
11.66	2.748148983E-1	5.262632275E-2	-1.130938638E-2
11.67	4.486964851E-1	-9.728989455E-3	2.903555399E-2
11.68	5.531430925E-1	-3.635534498E-2	4.648876796E-2
11.69	5.447095502E-1	4.288104442E-2	2.778071056E-2
11.700000000000001	4.679476083E-1	-2.078231099E-2	-1.968072554E-3
11.71	3.438567122E-1	-4.376541127E-2	-2.692723767E-2
11.72	2.093169663E-1	5.026399703E-2	-4.938955818E-2
11.73	7.826631836E-2	3.657748976E-2	-4.805696981E-2
11.74	-1.936180904E-2	-5.010087481E-2	-2.177348594E-2
11.75	-9.575088371E-2	6.750779775E-2	8.268400529E-3
11.76	-1.076931511E-1	3.651570056E-3	4.483828197E-2
11.77	-1.206467425E-1	-7.732990953E-2	8.459934841E-2
11.78	-1.326723363E-1	4.232534165E-2	6.125855769E-2
11.790000000000001	-1.038617820E-1	6.124606287E-2	-1.682585013E-2
11.8	-7.728617944E-2	-2.267317715E-2	-6.806907845E-2
11.81	-3.542722080E-2	2.141803089E-2	-9.207432608E-2
11.82	-2.152107644E-6	3.124075354E-2	-7.144172466E-2
11.83	5.484723586E-3	-2.653781201E-2	6.684382591E-3
11.84	-2.776368381E-3	-3.170044574E-2	8.239128719E-2
11.85	-1.958040808E-2	1.846459127E-2	9.910183559E-2
11.86	-5.249354609E-2	-2.158111709E-2	6.714817512E-2
11.870000000000001	-8.665556590E-2	-3.919204995E-2	4.346376756E-3
11.88	-1.274627964E-1	2.137825875E-2	-6.356195229E-2
11.89	-1.757909592E-1	-9.747106611E-3	-8.600333265E-2
11.9	-2.470136677E-1	-4.089686247E-2	-4.445968022E-2
11.91	-2.692357098E-1	3.981933919E-2	1.245150218E-2
11.92	-3.078216111E-1	5.218490985E-2	5.173840175E-2
11.93	-3.059504251E-1	-2.453597447E-2	6.357671681E-2
11.94	-2.609414046E-1	4.413583696E-2	2.597231889E-2
11.950000000000001	-1.820000620E-1	3.073897666E-2	-1.380292427E-2
11.96	-6.579916229E-2	-1.926990696E-2	-3.533394937E-2
11.97	7.037634600E-2	5.544703278E-3	-4.552552016E-2
11.98	2.294956910E-1	1.934380108E-2	-3.505182742E-2
11.99	4.028559841E-1	-2.221615034E-2	-5.394128462E-3
12.0	5.545071996E-1	-1.976582798E-2	2.939730296E-2
12.01	6.411042824E-1	1.986889705E-2	4.831604253E-2
12.02	6.411769024E-1	-1.312595026E-2	4.893291538E-2
12.030000000000001	5.399167741E-1	-1.865051332E-2	2.823258052E-2
12.040000000000001	3.512266458E-1	2.912012858E-2	-2.223628392E-2
12.05	1.257574142E-1	1.562878875E-2	-6.662167052E-2
12.06	-1.065652722E-1	-1.486827754E-3	-7.259651799E-2
12.07	-3.356623446E-1	4.111891118E-2	-6.147761693E-2
12.08	-5.347440273E-1	4.439516959E-3	7.184252415E-3
12.09	-6.754316734E-1	-2.896384066E-2	7.983362038E-2
12.1	-7.424439917E-1	1.694784966E-2	9.455124402E-2
12.11	-7.056564895E-1	5.237885417E-3	6.641986956E-2
12.120000000000001	-5.757640587E-1	-1.334292417E-2	6.063719666E-3
12.13	-3.832950579E-1	2.701933060E-3	-5.835919728E-2
12.14	-1.662202733E-1	1.073744890E-2	-7.666819920E-2
12.15	5.890401403E-2	-2.954030129E-2	-4.275042882E-2
12.16	2.547797186E-1	-1.038807644E-2	1.115094237E-2
12.17	4.076322388E-1	1.768870946E-2	4.756050314E-2
12.18	5.109488533E-1	-1.135478726E-2	5.732645254E-2
12.19	5.082972996E-1	-5.056118507E-3	2.625469600E-2
12.200000000000001	4.442229951E-1	3.475799588E-2	-3.725591054E-2
12.21	3.138137067E-1	-3.381673070E-2	-4.344830861E-2
12.22	1.820646251E-1	-1.876869174E-2	-6.333833089E-2
12.23	4.407726164E-2	3.513099527E-2	-3.570042534E-2
12.24	-5.439268409E-2	-1.375920535E-2	2.256070090E-2
12.25	-1.227148997E-1	1.018902607E-2	5.179072848E-2
12.26	-1.263339138E-1	3.741114098E-2	5.297502176E-2
12.27	-9.822153582E-2	1.495736026E-2	3.885799660E-2
12.280000000000001	-3.755369224E-2	5.633309428E-3	7.706540780E-3
12.290000000000001	4.121699254E-2	2.001699177E-2	-2.866505971E-2
12.3	1.101943267E-1	3.463672523E-3	-5.457888951E-2
12.31	1.524356917E-1	-1.016310125E-2	-5.962374827E-2
12.32	1.739810410E-1	1.163417684E-2	-3.792410315E-2
12.33	1.732618267E-1	1.018397328E-2	3.308770627E-3
12.34	1.297336100E-1	-2.846452174E-2	5.549930429E-2
12.35	6.606650601E-2	-1.633522781E-2	7.717919002E-2
12.36	-2.330425431E-2	-7.142449643E-3	5.409140239E-2
12.370000000000001	-1.266188418E-1	-3.966912004E-2	8.927294115E-3
12.38	-2.247903487E-1	-1.833706601E-3	-5.304642556E-2
12.39	-2.937510360E-1	2.335622584E-2	-7.312829855E-2
12.4	-3.384354735E-1	-4.226837624E-3	-4.153454886E-2
12.41	-3.487181429E-1	5.376131054E-3	1.237517114E-2
12.42	-3.266369521E-1	1.962932241E-2	5.456183086E-2
12.43	-2.769066971E-1	1.826165642E-3	6.381088215E-2
12.44	-1.969347747E-1	1.150929948E-3	2.796971117E-2
12.450000000000001	-9.117565681E-2	2.016677280E-2	-2.992295613E-2
12.46	2.883423310E-2	1.113788060E-2	-6.971767733E-2
12.47	1.610110195E-1	-4.575107497E-3	-7.004733528E-2
12.48	3.094191087E-1	7.875132833E-3	-3.854886403E-2
12.49	4.523694051E-1	-3.627378669E-3	3.107952724E-2
12.5	5.519330111E-1	-2.794078581E-2	6.734637141E-2
12.51	5.947323200E-1	-3.728254435E-3	6.342820331E-2
12.52	5.730339254E-1	1.513416087E-2	3.275332103E-2
12.530000000000001	4.672366505E-1	-1.281267427E-2	-9.076064156E-3
12.540000000000001	3.065224584E-1	5.603349219E-3	-5.671906843E-2
12.55	1.366200298E-1	1.472957716E-2	-7.038753338E-2
12.56	-6.678336613E-2	-1.611668840E-3	-4.868936970E-2
12.57	-2.678277193E-1	-1.507647660E-3	-1.405000081E-2
12.58	-4.454995047E-1	1.867317376E-2	2.519077907E-2
12.59	-5.684164330E-1	-3.126050631E-3	5.387793106E-2
12.6	-6.357630170E-1	-1.221136065E-2	5.529459302E-2
12.61	-6.351470420E-1	3.590904678E-3	3.791720608E-2
12.620000000000001	-5.444518312E-1	-6.506841758E-3	9.245707899E-3
12.63	-4.113187443E-1	-1.835708204E-2	-2.772488942E-2
12.64	-2.324716758E-1	2.123860908E-2	-4.635985722E-2
12.65	-4.496218576E-2	4.178440342E-3	-3.431453448E-2
12.66	1.335246651E-1	-2.972311180E-2	5.503585585E-3
12.67	2.843554700E-1	6.166439403E-3	3.995709071E-2
12.68	3.789463308E-1	-1.723229931E-3	5.010386800E-2
12.69	3.870530550E-1	-2.188134458E-2	2.422802041E-2
12.700000000000001	3.380127550E-1	1.366349923E-3	-2.041893353E-2
12.71	2.420721366E-1	5.069619592E-3	-6.185422284E-2
12.72	1.197711601E-1	-5.752729862E-8	-6.476405664E-2
12.73	-2.820261114E-3	4.977094967E-3	-2.918652604E-2
12.74	-9.737356960E-2	1.552468024E-2	2.268331214E-2
12.75	-1.659177107E-1	8.356710175E-3	6.812468364E-2
12.76	-1.754254639E-1	2.486604451E-3	7.609452887E-2
12.77	-1.469197546E-1	3.142047850E-2	3.649410854E-2
12.780000000000001	-6.840147013E-2	4.499111568E-3	-1.103032144E-2
12.790000000000001	3.015881320E-2	7.542776742E-3	-5.352636908E-2
12.8	1.349247937E-1	1.278392984E-2	-6.263948659E-2
12.81	2.147214278E-1	-1.562729786E-3	-4.035976908E-2
12.82	2.634370340E-1	-1.271481070E-2	-6.460965773E-3
12.83	2.611122196E-1	-3.948106904E-3	2.209749553E-2
12.84	2.062389825E-1	-9.855961288E-3	3.925254782E-2
12.85	1.114427544E-1	-1.926687750E-2	3.848662029E-2
12.86	-1.023132768E-2	-1.034117479E-2	1.582399733E-2
12.870000000000001	-1.420833656E-1	-1.109232142E-2	-8.967625393E-3
12.88	-2.832982766E-1	-1.418063554E-2	-3.056535115E-2
12.89	-3.918804823E-1	-1.022485670E-3	-3.449077000E-2
12.9	-4.567355302E-1	1.114959519E-2	-2.143629208E-2
12.91	-4.663676438E-1	-1.230282006E-3	1.076105952E-2
12.92	-4.326399599E-1	1.064742700E-2	4.275822292E-2
12.93	-3.415246837E-1	1.255457012E-2	4.729624683E-2
12.94	-2.152914133E-1	9.680700330E-4	2.357392232E-2
12.950000000000001	-7.194795676E-2	2.250452097E-3	-1.710916831E-2
12.96	8.887236774E-2	6.494074014E-3	-5.840223666E-2
12.97	2.543606914E-1	-4.361919489E-3	-7.300561299E-2
12.98	3.999911798E-1	-7.024272110E-3	-4.187373509E-2
12.99	5.076198602E-1	-9.794808612E-4	1.366022666E-2
13.0	5.726671019E-1	-2.246906931E-3	6.001378688E-2
13.01	5.856045891E-1	-4.744191968E-3	7.656972149E-2
13.02	5.283454838E-1	-8.229463141E-4	4.551109318E-2
13.030000000000001	4.236614145E-1	7.779529431E-4	-1.163525929E-2
13.040000000000001	2.799863208E-1	-9.659999560E-3	-5.427157750E-2
13.05	1.288875036E-1	1.754118648E-2	-7.572846101E-2
13.06	-2.737830941E-2	1.432630517E-2	-4.837884388E-2
13.07	-1.735250865E-1	-1.572518321E-2	5.817552904E-3
13.08	-3.029601439E-1	2.109421818E-2	4.591310246E-2
13.09	-3.936966303E-1	4.669813353E-4	5.427249491E-2
13.1	-4.540843474E-1	-1.082760515E-2	3.707537303E-2
13.11	-4.568225275E-1	4.150138024E-3	5.385156969E-3
13.120000000000001	-4.202872348E-1	6.081425277E-3	-1.968372669E-2
13.13	-3.269459352E-1	-5.513765873E-3	-3.002207560E-2
13.14	-2.091090219E-1	-2.702251412E-3	-2.060456977E-2
13.15	-7.016028676E-2	-4.017249163E-3	2.253045751E-3
13.16	6.449721669E-2	-1.442839039E-2	2.226553163E-2
13.17	1.789951325E-1	-1.549092502E-2	3.255973016E-2
13.18	2.665539039E-1	-7.379762556E-3	2.848114620E-2
13.19	2.965725864E-1	-1.268818709E-2	5.721269945E-3
13.200000000000001	2.783607366E-1	-8.994654420E-3	-1.966794565E-2
13.21	2.220888213E-1	8.567213632E-3	-4.517507525E-2
13.22	1.347820422E-1	2.980182232E-3	-5.056182831E-2
13.23	3.064311012E-2	-2.653216331E-3	-2.822312390E-2
13.24	-6.103628619E-2	1.562569827E-2	1.204588627E-2
13.25	-1.239789020E-1	1.162387816E-2	4.970314632E-2
13.26	-1.473238980E-1	6.952503260E-3	6.403334270E-2
13.27	-1.275390508E-1	2.064246375E-2	4.363951522E-2
13.280000000000001	-5.659538621E-2	1.310063871E-2	-1.994954571E-3
13.290000000000001	3.482747833E-2	-5.085290746E-4	-4.514865176E-2
13.3	1.410683211E-1	1.919620746E-5	-6.198088475E-2
13.31	2.404230035E-1	-2.272280565E-4	-4.484908452E-2
13.32	3.006088222E-1	-1.101320210E-2	9.457267317E-4
13.33	3.105874401E-1	-8.937544260E-3	3.740945574E-2
13.34	2.652308025E-1	-5.215897900E-3	4.649920417E-2
13.35	1.720467824E-1	-1.148812853E-2	3.059185626E-2
13.36	3.245274854E-2	-1.325768797E-2	-4.085248684E-3
13.370000000000001	-1.396643673E-1	-1.716230538E-3	-3.606562962E-2
13.38	-3.072451157E-1	-9.291562703E-4	-4.259108794E-2
13.39	-4.525094756E-1	-2.518628444E-3	-1.382807396E-2
13.4	-5.501331984E-1	2.842329119E-3	1.974711070E-2
13.41	-5.857056891E-1	3.056083743E-3	4.477938304E-2
13.42	-5.581235911E-1	-5.038131322E-4	5.250610467E-2
13.43	-4.588627091E-1	5.795106052E-3	2.982736527E-2
13.44	-3.192274437E-1	8.062540543E-3	-9.321936310E-4
13.450000000000001	-1.412460046E-1	8.670775097E-4	-3.052959940E-2
13.46	5.230444650E-2	-1.934773650E-3	-4.897107472E-2
13.47	2.348885716E-1	9.300324061E-4	-4.623788228E-2
13.48	3.854951921E-1	-3.859579953E-3	-2.672952776E-2
13.49	4.926799918E-1	-2.993071623E-3	7.869792773E-3
13.5	5.516682440E-1	2.409895057E-3	4.451017567E-2
13.51	5.322132526E-1	2.614510484E-3	5.697196610E-2
13.52	4.480201925E-1	-4.595975306E-3	4.099707256E-2
13.530000000000001	3.304357556E-1	-7.148292871E-3	1.187433958E-3
13.540000000000001	2.016617358E-1	2.127824915E-3	-4.013186602E-2
13.55	5.897986065E-2	5.741803620E-3	-6.175719609E-2
13.56	-6.267795493E-2	-3.169798355E-3	-4.245631566E-2
13.57	-1.753954565E-1	2.016043688E-2	-2.724998661E-3
13.58	-2.528748052E-1	6.713442383E-3	3.889459820E-2
13.59	-3.110160880E-1	2.323088984E-3	5.468597594E-2
13.6	-3.330114389E-1	4.965215378E-3	3.502610863E-2
13.61	-3.300145184E-1	6.986567118E-4	-2.430070540E-3
13.620000000000001	-3.039652192E-1	-4.423977163E-3	-3.827510228E-2
13.63	-2.495709486E-1	1.000544855E-3	-4.516500479E-2
13.64	-1.768581360E-1	4.046658295E-3	-1.868522841E-2
13.65	-8.519879616E-2	-1.143539373E-2	2.172654415E-2
13.66	8.150146455E-4	-1.497147468E-2	4.887633690E-2
13.67	9.372240554E-2	-2.482602271E-2	5.125679622E-2
13.68	1.382564695E-1	-1.018094347E-2	2.151621612E-2
13.69	1.733153574E-1	-1.341835403E-2	-1.639513998E-2
13.700000000000001	1.699896158E-1	6.971465249E-3	-4.260135045E-2
13.71	1.483877863E-1	1.008753955E-3	-4.602107396E-2
13.72	9.846534476E-2	2.656211777E-3	-2.875166291E-2
13.73	4.748106564E-2	6.248626625E-3	-4.718224637E-3
13.74	-8.124470625E-3	1.021742438E-2	1.804491233E-2
13.75	-4.829209507E-2	1.135430756E-2	3.286108113E-2
13.76	-6.415067095E-2	1.591045793E-2	3.665298460E-2
13.77	-4.465999255E-2	1.762928565E-2	2.450946224E-2
13.780000000000001	1.029788847E-2	5.872048337E-3	3.129447493E-4
13.790000000000001	9.188634764E-2	8.335011277E-3	-2.885712971E-2
13.8	1.935963434E-1	-3.034134755E-3	-4.198739814E-2
13.81	2.831245726E-1	-4.559696972E-3	-3.862938748E-2
13.82	3.674208368E-1	-1.191936108E-2	-5.758813521E-3
13.83	3.935939123E-1	-3.302214768E-3	2.137729205E-2
13.84	3.534554647E-1	-4.833263033E-3	4.159618976E-2
13.85	2.569071687E-1	-3.087821033E-3	2.609440456E-2
13.86	1.251218856E-1	-1.082530591E-2	-5.916799208E-3
13.870000000000001	-3.546095576E-2	-6.487695981E-3	-4.136297990E-2
13.88	-2.185899136E-1	-2.089142333E-3	-4.789721484E-2
13.89	-3.847432467E-1	9.674507001E-4	-2.361754731E-2
13.9	-5.065592139E-1	4.702380656E-3	2.072071374E-2
13.91	-5.765554224E-1	5.840444837E-3	5.721636424E-2
13.92	-5.695877348E-1	-6.736994049E-4	6.432886730E-2
13.93	-4.947255737E-1	-3.198673221E-3	3.871185932E-2
13.94	-3.622350434E-1	4.315524460E-3	-7.944918145E-3
13.950000000000001	-1.870696548E-1	7.405007303E-3	-4.901389740E-2
13.96	2.010609185E-3	6.169224242E-3	-5.888542334E-2
13.97	2.010448898E-1	2.438187871E-3	-3.774819722E-2
13.98	3.841046060E-1	-1.991085436E-3	2.810522417E-3
13.99	5.153164114E-1	-5.520137872E-3	2.396664272E-2
14.0	5.738977292E-1	-5.631765906E-3	3.935251454E-2
14.01	5.227945511E-1	8.632917786E-3	3.059240483E-2
14.02	4.326621205E-1	-5.620814614E-4	8.950939504E-3
14.030000000000001	3.034689105E-1	-1.245874164E-3	-1.745623499E-2
14.040000000000001	1.610421296E-1	3.844934991E-3	-2.832810878E-2
14.05	2.454224001E-2	1.059319947E-3	-2.745164265E-2
14.06	-9.301114608E-2	-3.954713073E-3	-2.283004155E-2
14.07	-1.878889524E-1	1.227586714E-2	-7.371171614E-3
14.08	-2.443633625E-1	1.803487309E-2	1.832042444E-2
14.09	-2.684698464E-1	5.063806592E-3	3.677908873E-2
14.1	-2.686191349E-1	4.202098775E-3	2.930082585E-2
14.11	-2.455962171E-1	1.128884077E-2	-1.001960764E-3
14.120000000000001	-2.085809981E-1	-1.575008306E-2	-3.181062092E-2
14.13	-1.633315360E-1	-1.095976504E-2	-4.698405614E-2
14.14	-1.211160098E-1	8.030085538E-3	-3.061642995E-2
14.15	-8.499192597E-2	-1.888087546E-2	1.300953114E-2
14.16	-5.026780958E-2	-1.119322385E-2	4.955363625E-2
14.17	-2.212086924E-2	-5.856336973E-3	5.869440628E-2
14.18	-5.811824584E-3	-2.028494352E-2	3.367704048E-2
14.19	2.667052800E-4	-1.823644503E-2	-8.734243749E-3
14.200000000000001	-6.401280878E-3	-2.148546855E-3	-4.730857618E-2
14.21	-2.239088729E-2	4.747148062E-3	-5.892672226E-2
14.22	-4.161538701E-2	5.410987317E-3	-3.539311331E-2
14.23	-5.741301436E-2	1.652599800E-2	1.773944406E-3
14.24	-6.934475054E-2	1.441494272E-2	3.636765132E-2
14.25	-6.513379571E-2	-4.587333163E-3	4.707753163E-2
14.26	-5.116668308E-2	1.416021010E-2	2.815309227E-2
14.27	-1.841928126E-2	1.063175815E-2	3.125407556E-3
14.280000000000001	3.569350239E-2	9.056215163E-4	-1.580746047E-2
14.290000000000001	1.100757683E-1	6.001143243E-3	-2.601836552E-2
14.3	1.917383398E-1	7.494167883E-3	-2.163468709E-2
14.31	2.684578218E-1	-5.576914965E-3	-8.138965275E-3
14.32	3.267247086E-1	-2.925595286E-3	7.473828564E-3
14.33	3.577186558E-1	1.058537695E-5	1.777891857E-2
14.34	3.376766060E-1	-9.616219172E-3	1.785223686E-2
14.35	2.675438382E-1	-6.494989022E-3	1.241761345E-2
14.36	1.603127118E-1	-1.358802709E-3	-5.861613107E-3
14.370000000000001	5.169508113E-3	-5.103547599E-3	-3.075232854E-2
14.38	-1.626065766E-1	-9.675514426E-3	-4.050832143E-2
14.39	-3.213143622E-1	8.080842991E-3	-2.722335210E-2
14.4	-4.491326685E-1	-6.953991216E-3	1.242745755E-2
14.41	-5.312050397E-1	-4.951045824E-3	4.347667535E-2
14.42	-5.523320228E-1	5.179206418E-3	5.989782335E-2
14.43	-5.031865279E-1	-1.141526642E-3	4.052621079E-2
14.44	-3.904280532E-1	-2.222905752E-3	-9.022093415E-4
14.450000000000001	-2.271972703E-1	3.442161528E-3	-4.448102834E-2
14.46	-3.511424220E-2	-2.435628869E-4	-6.218833651E-2
14.47	1.612164366E-1	-5.652294557E-3	-4.909741393E-2
14.48	3.371219893E-1	2.014195117E-3	-1.515278642E-2
14.49	4.909032549E-1	-2.299104891E-4	3.938145290E-2
14.5	5.668928289E-1	-8.168771183E-3	5.338986508E-2
14.51	5.555215584E-1	3.363184279E-3	3.375370939E-2
14.52	4.713517422E-1	3.179171229E-3	3.231887818E-4
14.530000000000001	3.360082682E-1	-8.304788132E-3	-2.523061803E-2
14.540000000000001	1.876670564E-1	3.976414774E-3	-2.936719289E-2
14.55	4.374680455E-2	1.796295819E-2	-1.594659199E-2
14.56	-6.910305629E-2	-1.118326488E-3	4.436344605E-3
14.57	-1.496326692E-1	1.059664091E-2	1.867484212E-2
14.58	-1.977184742E-1	2.466018687E-2	2.343780676E-2
14.59	-2.005972720E-1	1.594592401E-3	1.808734496E-2
14.6	-1.763728415E-1	-1.979784246E-3	3.189607957E-3
14.61	-1.215596079E-1	1.431860027E-2	-1.639788975E-2
14.620000000000001	-7.165766662E-2	-5.935983668E-3	-2.213064947E-2
14.63	-2.160401773E-2	-1.076872770E-2	-2.363530953E-2
14.64	1.554023276E-2	1.146911704E-2	-1.769729008E-2
14.65	3.752062371E-2	-1.735750179E-2	7.645254144E-3
14.66	2.585059579E-2	-1.825966454E-2	3.495551343E-2
14.67	8.094355952E-3	-6.802566092E-3	4.674481815E-2
14.68	-3.044566469E-2	-1.322044423E-2	3.450645589E-2
14.69	-7.066386213E-2	-1.625305566E-2	1.988016466E-3
14.700000000000001	-1.055067789E-1	2.886000771E-3	-3.574511876E-2
14.71	-1.291188467E-1	4.727533548E-3	-5.288186198E-2
14.72	-1.400413693E-1	-1.690413665E-3	-3.835941410E-2
14.73	-1.375304415E-1	7.663174306E-3	-4.573353543E-3
14.74	-1.173406357E-1	1.375051718E-2	2.899186088E-2
14.75	-8.421025564E-2	1.249323014E-3	4.723446498E-2
14.76	-3.284543564E-2	7.727841411E-3	3.151074062E-2
14.77	2.195056122E-2	1.698806467E-2	-2.714889193E-3
14.780000000000001	8.466618159E-2	1.036181878E-3	-2.760798261E-2
14.790000000000001	1.528706873E-1	-9.692397973E-4	-3.556752553E-2
14.8	2.197806304E-1	1.097031910E-2	-2.242104266E-2
14.81	2.728329277E-1	-5.612528727E-3	8.095900923E-3
14.82	3.105086689E-1	-9.892820377E-3	2.847268166E-2
14.83	3.149382740E-1	-1.034511659E-3	2.675213323E-2
14.84	2.874616493E-1	-3.862010472E-3	1.001984454E-2
14.85	2.251359510E-1	-6.422178709E-3	-1.187387567E-2
14.86	1.242989698E-1	3.176741574E-3	-2.557667177E-2
14.870000000000001	-1.025691616E-3	2.570245244E-3	-2.939598387E-2
14.88	-1.402116868E-1	-6.011640702E-3	-2.219553152E-2
14.89	-2.867219721E-1	8.053424695E-4	-6.717446944E-3
14.9	-4.117496085E-1	2.252727677E-3	1.459700286E-2
14.91	-5.012665623E-1	-6.345746922E-3	3.308349597E-2
14.92	-5.411193072E-1	6.650067989E-3	4.253895412E-2
14.93	-5.196391283E-1	6.062435370E-3	3.506767879E-2
14.94	-4.445909936E-1	-5.614623589E-3	1.102468740E-2
14.950000000000001	-3.085457850E-1	2.333754524E-3	-2.001670766E-2
14.96	-1.464573431E-1	2.102085210E-3	-4.305015744E-2
14.97	3.386002135E-2	-9.145531602E-3	-4.092227011E-2
14.98	2.056745711E-1	-9.741973879E-3	-1.911949697E-2
14.99	3.417851284E-1	-1.704454763E-3	1.375930066E-2
15.0	4.425244789E-1	-6.362920659E-3	4.164547750E-2
15.01	4.669030274E-1	-2.082251794E-3	3.320840060E-2
15.02	4.233424419E-1	3.714341620E-3	4.775741263E-3
15.030000000000001	3.184733507E-1	-6.910730184E-3	-1.675044374E-2
15.040000000000001	1.891820992E-1	1.596386258E-3	-4.315238347E-2
15.05	5.316023788E-2	1.810065411E-2	-2.468548110E-2
15.06	-6.288370693E-2	-5.120362509E-3	9.441974073E-3
15.07	-1.556369506E-1	1.483076808E-2	3.313702236E-2
15.08	-1.923142063E-1	1.439981152E-2	3.453962932E-2
15.09	-1.971535100E-1	6.414895366E-3	1.486010401E-2
15.1	-1.520278754E-1	4.858870381E-3	-1.259444146E-2
15.11	-9.089670865E-2	1.067903231E-2	-3.209821682E-2
15.120000000000001	-1.799154997E-2	1.867428402E-3	-3.269135764E-2
15.13	5.254941891E-2	-8.216584053E-3	-1.918815007E-2
15.14	1.011693292E-1	-2.777975056E-3	9.593562700E-4
15.15	1.190818909E-1	-6.683720516E-3	1.723865848E-2
15.16	1.010650535E-1	-1.525569788E-2	2.640281882E-2
15.17	6.175972158E-2	-1.250249504E-2	2.788535033E-2
15.18	-6.832999413E-3	-3.176028917E-3	1.838910379E-2
15.19	-8.033126940E-2	-2.148850533E-2	5.615564683E-3
15.200000000000001	-1.568968808E-1	1.429793621E-5	-1.791558613E-2
15.21	-2.026366626E-1	5.408913542E-3	-3.162770619E-2
15.22	-2.334705749E-1	-8.509905476E-4	-2.838804702E-2
15.23	-2.153061168E-1	4.230943625E-3	-8.824786679E-3
15.24	-1.776382752E-1	1.407114346E-2	1.443678604E-2
15.25	-1.093059366E-1	3.976330617E-3	3.029732373E-2
15.26	-3.039476873E-2	7.729650579E-3	2.759314269E-2
15.27	6.238338921E-2	1.137892811E-2	3.725334466E-3
15.280000000000001	1.578257216E-1	2.960123766E-3	-2.505168309E-2
15.290000000000001	2.429001297E-1	-2.605150368E-3	-3.937951436E-2
15.3	3.127787379E-1	4.398477855E-3	-2.724127293E-2
15.31	3.579708328E-1	1.896241266E-3	3.587967758E-3
15.32	3.826680144E-1	-1.140832331E-2	3.506946529E-2
15.33	3.642270479E-1	3.342689287E-3	4.203040667E-2
15.34	3.222776855E-1	-9.704243865E-3	3.419661174E-2
15.35	2.426408018E-1	-1.064660224E-2	-1.327367177E-2
15.36	1.520480479E-1	4.705018822E-3	-4.301066746E-2
15.370000000000001	3.598003127E-2	9.775597151E-3	-4.724120757E-2
15.38	-8.652107554E-2	-4.501144377E-3	-2.408293043E-2
15.39	-2.021813998E-1	1.014994385E-2	3.383347438E-3
15.4	-3.050480147E-1	3.292586806E-3	2.743036956E-2
15.41	-3.880777346E-1	-5.392383661E-3	3.768711696E-2
15.42	-4.305259596E-1	1.822590951E-3	3.003794322E-2
15.43	-4.334924356E-1	6.152301979E-3	1.267265416E-2
15.44	-3.865711598E-1	-2.693175042E-3	-2.675878348E-3
15.450000000000001	-3.007270632E-1	-1.559427389E-4	-1.410610100E-2
15.46	-1.798452943E-1	7.238905196E-3	-1.920153777E-2
15.47	-3.401936044E-2	-1.086974236E-2	-1.591576924E-2
15.48	1.113155807E-1	-1.009421351E-2	-8.976186415E-3
15.49	2.321098779E-1	1.457252163E-3	4.204667760E-3
15.5	3.174364989E-1	-8.361395666E-3	1.723675801E-2
15.51	3.746906007E-1	-7.758237149E-3	1.940426479E-2
15.52	3.544045119E-1	1.531951740E-2	5.832867736E-3
15.530000000000001	2.825378798E-1	-4.686509741E-3	-1.473377386E-2
15.540000000000001	1.924953483E-1	-1.262191597E-3	-2.773059670E-2
15.55	8.081716518E-2	1.135130440E-2	-2.226740674E-2
15.56	-2.947301793E-2	6.206625728E-3	1.275169664E-3
15.57	-1.218250782E-1	3.380557670E-3	2.887045489E-2
15.58	-1.758018806E-1	1.568014986E-2	3.802612108E-2
15.59	-1.926610486E-1	9.729184731E-3	2.880343456E-2
15.6	-1.686706044E-1	-1.730669851E-3	1.271528326E-4
15.610000000000001	-1.062767540E-1	1.072116843E-2	-3.622365346E-2
15.620000000000001	-3.383369464E-2	6.020477231E-3	-4.569969400E-2
15.63	4.380640669E-2	-1.003738984E-2	-2.910883890E-2
15.64	1.025548040E-1	4.253195743E-4	-2.266154589E-3
15.65	1.281252485E-1	-4.896812635E-3	2.333164902E-2
15.66	1.177410425E-1	-1.640628549E-2	3.478077541E-2
15.67	7.020675073E-2	-1.278261366E-2	2.515837322E-2
15.68	-7.959380552E-3	-7.164671975E-3	5.048307784E-3
15.69	-1.078128698E-1	-1.136781763E-2	-1.127247435E-2
15.700000000000001	-2.078770443E-1	-6.867737079E-3	-1.806796210E-2
15.71	-2.886694588E-1	5.302123287E-3	-1.319985836E-2
15.72	-3.383285046E-1	2.984393585E-4	-3.063949144E-3
15.73	-3.481677424E-1	-1.855285715E-3	7.088667253E-3
15.74	-3.095804665E-1	1.272050014E-2	1.207206875E-2
15.75	-2.346864380E-1	6.983329245E-3	1.216296364E-2
15.76	-1.257090484E-1	-2.294669773E-3	6.619211534E-3
15.77	-6.118124850E-3	1.677392254E-2	-3.781164532E-3
15.780000000000001	1.270441805E-1	2.562452818E-3	-1.346564111E-2
15.790000000000001	2.459605015E-1	-5.122317996E-3	-2.133145680E-2
15.8	3.415117324E-1	3.057041440E-3	-1.582843175E-2
15.81	3.955979753E-1	1.448826481E-3	-7.773776483E-4
15.82	4.091782629E-1	-8.336686526E-3	1.949559238E-2
15.83	3.796524960E-1	2.767333635E-3	3.294531418E-2
15.84	3.095491989E-1	2.075980738E-3	2.399268758E-2
15.85	2.241263990E-1	-6.197491884E-3	7.589176148E-4
15.860000000000001	1.284720857E-1	3.566923614E-3	-2.592277681E-2
15.870000000000001	2.308599125E-2	8.860777889E-3	-4.613213887E-2
15.88	-8.183673968E-2	-5.121551555E-3	-3.608716359E-2
15.89	-1.697920263E-1	8.956123456E-3	-9.228718855E-3
15.9	-2.455460207E-1	1.025298007E-2	2.474236844E-2
15.91	-3.049313342E-1	-8.766676213E-3	4.550299297E-2
15.92	-3.324922083E-1	8.366393572E-3	3.364103256E-2
15.93	-3.276286590E-1	4.815915362E-4	7.831921505E-3
15.94	-2.979509770E-1	-8.333612408E-3	-1.476542821E-2
15.950000000000001	-2.367151581E-1	-3.477049134E-4	-2.374923100E-2
15.96	-1.564943770E-1	3.692593927E-3	-1.932545244E-2
15.97	-5.416449237E-2	-6.727631341E-3	-2.737710990E-3
15.98	5.213248644E-2	-7.134532605E-3	1.035201575E-2
15.99	1.501104090E-1	-3.949060691E-3	1.278916792E-2
16.0	2.303168899E-1	-7.703091426E-3	7.539136227E-3
16.01	2.780173223E-1	-6.454823916E-3	-2.518573365E-3
16.02	2.955614580E-1	5.014923785E-3	-1.145453801E-2
16.03	2.728801359E-1	-3.222279277E-3	-1.391251912E-2
16.04	2.186933393E-1	-2.049478393E-3	-1.329939168E-2
16.05	1.446881104E-1	1.000108156E-2	-8.918284277E-3
16.06	5.850657473E-2	6.082162906E-3	1.736971239E-3
16.07	-1.668651266E-2	2.774934951E-3	1.680970697E-2
16.080000000000002	-7.191617759E-2	1.861369699E-2	2.457273504E-2
16.09	-9.490620484E-2	9.639181022E-3	2.279194484E-2
16.1	-8.677952041E-2	4.141519044E-3	7.401090959E-3
16.11	-4.726755735E-2	1.053698040E-2	-1.692969621E-2
16.12	1.673516301E-2	3.714165889E-3	-3.429794286E-2
16.13	8.501105894E-2	-6.107717052E-3	-3.288364593E-2
16.14	1.426516288E-1	-4.051052527E-3	-1.264132227E-2
16.15	1.777621473E-1	-3.310003456E-3	1.434197078E-2
16.16	1.731907500E-1	-1.254645022E-2	3.482231746E-2
16.17	1.303292649E-1	-1.075007977E-2	3.184478259E-2
16.18	5.155741178E-2	-7.255264358E-3	9.960437610E-3
16.19	-5.482619575E-2	-1.206927852E-2	-1.374339062E-2
16.2	-1.693358235E-1	-7.613661752E-3	-2.620389453E-2
16.21	-2.852978980E-1	7.828972761E-3	-2.243008961E-2
16.22	-3.679819347E-1	1.052615372E-3	1.783139288E-3
16.23	-4.009682497E-1	1.841818352E-3	2.214612073E-2
16.240000000000002	-3.827754389E-1	7.025861714E-3	2.777250896E-2
16.25	-3.183484208E-1	1.976969440E-3	1.222490917E-2
16.26	-2.166702066E-1	-1.075867921E-3	-6.575565186E-3
16.27	-8.307710464E-2	6.581384507E-3	-2.103673688E-2
16.28	6.646519490E-2	4.169557752E-3	-2.395646526E-2
16.29	2.079698790E-1	-2.521257426E-3	-1.616736760E-2
16.3	3.211528028E-1	-2.990556023E-4	-1.621965071E-3
16.31	4.015968336E-1	-7.432274780E-4	1.363016734E-2
16.32	4.248975469E-1	-5.938100837E-3	2.047359036E-2
16.330000000000002	3.909956483E-1	-4.775556360E-3	2.172309779E-2
16.34	3.140581801E-1	1.301911739E-3	1.875340969E-2
16.35	2.159660518E-1	-1.423188463E-3	2.699884869E-4
16.36	9.709057461E-2	8.089461822E-3	-1.262536397E-2
16.37	-6.507216121E-3	-9.212216246E-4	-2.634711156E-2
16.38	-1.165936858E-1	3.994483003E-3	-3.042373929E-2
16.39	-1.986009919E-1	2.609038476E-3	-1.617398610E-2
16.4	-2.603507077E-1	6.415818904E-3	6.094786027E-3
16.41	-2.929222398E-1	-3.811612551E-3	2.941949639E-2
16.42	-3.042016169E-1	3.603192188E-3	3.269866534E-2
16.43	-2.928619456E-1	1.214903965E-3	1.856193489E-2
16.44	-2.610538708E-1	-5.112308310E-3	-5.579487850E-3
16.45	-2.143297516E-1	-3.649021413E-3	-2.364135136E-2
16.46	-1.562835752E-1	-2.412272718E-3	-2.118604054E-2
16.47	-9.578244066E-2	-7.318522064E-3	-2.303862559E-3
16.48	-2.969543987E-2	-6.441013833E-3	1.721873463E-2
16.490000000000002	3.367035586E-2	-1.202121179E-3	2.695690737E-2
16.5	8.919686485E-2	-1.203609748E-2	1.819765095E-2
16.51	1.311686839E-1	-7.356969740E-3	-5.971387526E-3
16.52	1.571620170E-1	-3.335509384E-3	-2.764616992E-2
16.53	1.533240267E-1	1.057741582E-3	-3.032847663E-2
16.54	1.363407339E-1	2.037686382E-3	-1.717007985E-2
16.55	1.024871029E-1	7.512363616E-3	2.960516313E-3
16.56	6.545666168E-2	1.041851461E-3	1.698918152E-2
16.57	2.295968888E-2	6.040085209E-3	2.178639300E-2
16.580000000000002	-9.830401485E-3	1.065531706E-2	1.890251381E-2
16.59	-2.739738087E-2	1.053678795E-2	9.922139459E-3
16.6	-1.981817961E-2	9.186387457E-3	-9.738109610E-4
16.61	8.085454172E-3	8.109573174E-3	-1.182299962E-2
16.62	5.114026215E-2	3.572839265E-3	-1.965159599E-2
16.63	1.055095958E-1	-2.459753103E-3	-2.034608837E-2
16.64	1.576910153E-1	-2.553078775E-3	-1.409169887E-2
16.65	1.911010132E-1	-5.388759614E-3	1.229809724E-5
16.66	1.980808700E-1	-7.112762060E-3	1.516461025E-2
16.67	1.712616687E-1	-9.670753981E-3	2.522914692E-2
16.68	9.714260308E-2	-3.440171273E-3	1.446491436E-2
16.69	2.289379938E-3	-9.073516752E-3	-3.090490004E-3
16.7	-1.093752216E-1	-5.366143312E-3	-1.817437520E-2
16.71	-2.168128802E-1	-1.426506125E-3	-2.124775402E-2
16.72	-3.123716620E-1	1.202839647E-3	-4.673564063E-3
16.73	-3.718540249E-1	-4.393326004E-5	1.739434695E-2
16.740000000000002	-3.801617519E-1	4.127456712E-3	2.996153455E-2
16.75	-3.409744011E-1	6.499137461E-3	2.395899425E-2
16.76	-2.467891871E-1	1.801330719E-3	-9.282433000E-4
16.77	-1.199295188E-1	1.885027278E-3	-2.497186243E-2
16.78	2.984498655E-2	6.613985621E-4	-3.514395760E-2
16.79	1.852081928E-1	-5.915338290E-4	-2.927270025E-2
16.8	3.204741132E-1	-2.846264563E-3	-1.142461496E-2
16.81	4.328591550E-1	1.588724826E-3	2.158302913E-2
16.82	4.879383228E-1	-4.880992342E-3	3.091154528E-2
16.830000000000002	4.643309457E-1	2.237656276E-4	2.536975744E-2
16.84	3.799620641E-1	-3.012164857E-3	7.054125169E-3
16.85	2.671537698E-1	-7.416948936E-4	-1.378625264E-2
16.86	1.497241856E-1	5.181771003E-3	-1.147833982E-2
16.87	2.329131896E-2	5.702785502E-3	-1.266765801E-2
16.88	-8.577165339E-2	9.161148167E-4	-1.261979572E-2
16.89	-1.672993724E-1	4.541107328E-3	-1.011809897E-2
16.9	-2.251823794E-1	8.438057771E-3	-2.278340956E-3
16.91	-2.492358847E-1	1.344303617E-3	9.671462125E-3
16.92	-2.437948781E-1	5.662947169E-4	1.234692125E-2
16.93	-2.166613105E-1	6.063460274E-3	7.654645595E-3
16.94	-1.757402124E-1	-9.247480274E-3	-7.702845340E-4
16.95	-1.323340397E-1	-8.661222298E-3	-1.241313757E-2
16.96	-8.644318332E-2	-1.839418969E-4	-1.802859654E-2
16.97	-5.407283475E-2	-1.397383547E-2	-9.093573002E-3
16.98	-2.347664819E-2	-7.745708625E-3	1.221795628E-2
16.990000000000002	-9.165527385E-4	-5.729514620E-4	2.569874416E-2
17.0	1.258770253E-2	-1.004192340E-2	2.571787486E-2
17.01	1.932009390E-2	-8.055548544E-3	5.476857795E-3
17.02	2.426347546E-2	-1.538695209E-4	-2.199396879E-2
17.03	2.414751846E-2	-6.008388489E-4	-3.597100408E-2
17.04	2.055375918E-2	1.192739249E-3	-2.732815952E-2
17.05	1.539447288E-2	8.638021398E-3	-5.123342177E-3
17.06	8.298059209E-3	7.372350257E-3	2.009010921E-2
17.07	4.060206603E-3	1.541644938E-3	3.198835531E-2
17.080000000000002	3.965370884E-3	6.552122496E-3	2.554947003E-2
17.09	6.443818524E-3	6.676510278E-3	8.066305688E-3
17.1	1.900845451E-2	8.589637044E-4	-1.135856576E-2
17.11	3.898042391E-2	8.835495163E-3	-2.117839207E-2
17.12	6.704077963E-2	7.251885322E-3	-1.799983472E-2
17.13	1.011620213E-1	-2.269610569E-3	-4.263135297E-3
17.14	1.328689445E-1	-4.886758587E-4	3.539587358E-3
17.150000000000002	1.533361138E-1	-3.698054429E-3	5.104757646E-3
17.16	1.495687513E-1	-9.179881404E-3	4.950666589E-3
17.17	1.177661224E-1	-8.341443431E-3	2.186198902E-3
17.18	6.261133111E-2	-2.955797465E-3	-1.216766043E-3
17.19	-1.925210014E-2	-3.297150367E-3	-4.298667477E-3
17.2	-1.173925470E-1	-5.169244435E-3	-6.886933943E-3
17.21	-2.182639826E-1	-2.212808859E-3	-6.535853852E-3
17.22	-3.071405829E-1	-2.194098090E-3	6.814188840E-4
17.23	-3.792868029E-1	-3.675454434E-3	1.356047283E-2
17.240000000000002	-4.052686031E-1	2.157181885E-3	2.467739234E-2
17.25	-3.858610554E-1	6.829095587E-3	2.679257908E-2
17.26	-3.159140145E-1	-8.926247320E-4	1.103224407E-2
17.27	-2.103050310E-1	6.369843634E-3	-1.162075888E-2
17.28	-6.189842599E-2	1.931908177E-3	-3.377771661E-2
17.29	9.808924208E-2	-3.913533118E-3	-3.460244527E-2
17.3	2.380311001E-1	-1.216896202E-3	-1.846709599E-2
17.31	3.587309626E-1	-3.187743475E-3	9.670380503E-3
17.32	4.351032948E-1	-2.747661959E-3	3.114078487E-2
17.330000000000002	4.552165866E-1	-3.478208626E-4	3.271698492E-2
17.34	4.031586188E-1	-1.643815161E-3	1.645631554E-2
17.35	3.081986345E-1	-3.322643068E-3	-7.714360854E-3
17.36	1.903690494E-1	1.787732218E-3	-2.455636372E-2
17.37	6.965262773E-2	6.670675634E-3	-2.003088522E-2
17.38	-4.385825125E-2	4.958289593E-3	-8.706784463E-3
17.39	-1.397394048E-1	6.940884033E-3	5.900947677E-3
17.400000000000002	-1.931460357E-1	1.738859277E-2	1.108196655E-2
17.41	-2.213880335E-1	6.676882777E-3	8.800836900E-3
17.42	-2.027205681E-1	-3.766995206E-3	2.294219497E-3
17.43	-1.624411609E-1	8.227812142E-3	-5.702428463E-3
17.44	-1.045671021E-1	-1.040143623E-2	-6.254304549E-3
17.45	-5.040106405E-2	-8.142076459E-3	-4.783319136E-3
17.46	-3.263364093E-3	2.109257623E-3	-3.143189292E-3
17.47	2.432497862E-2	-6.054643225E-3	2.152186423E-3
17.48	3.976415777E-2	-9.202972234E-3	9.657898804E-3
17.490000000000002	4.044682513E-2	-3.427414324E-3	1.604450832E-2
17.5	2.515362213E-2	-7.334751811E-3	1.632015834E-2
17.51	3.485522075E-3	-1.363648268E-2	7.073713640E-3
17.52	-2.033928436E-2	1.102022851E-3	-1.059447454E-2
17.53	-3.711240222E-2	5.815509797E-3	-2.480737699E-2
17.54	-4.486036659E-2	7.369926919E-4	-2.796000075E-2
17.55	-3.386152224E-2	6.321986899E-3	-1.550788474E-2
17.56	-1.780716677E-2	1.590605145E-2	6.317564348E-3
17.57	1.319526038E-2	-5.217260543E-3	2.796314332E-2
17.580000000000002	4.323778268E-2	7.936701411E-3	2.772775720E-2
17.59	8.054932009E-2	8.471959580E-3	1.317186961E-2
17.6	1.120395852E-1	2.519208092E-3	-7.742761275E-3
17.61	1.416828459E-1	3.221308940E-3	-2.018696580E-2
17.62	1.669960987E-1	6.561724747E-3	-1.947310894E-2
17.63	1.847688188E-1	-1.915943657E-3	-7.507715271E-3
17.64	1.897845338E-1	-5.040796065E-3	8.323904607E-3
17.650000000000002	1.833433212E-1	-1.858158585E-3	1.593668590E-2
17.66	1.606847824E-1	-5.400810864E-3	8.415438035E-3
17.67	1.193027700E-1	-6.097253057E-3	-4.406815345E-3
17.68	6.027198442E-2	-1.258458584E-3	-1.301491382E-2
17.69	-1.605727941E-2	1.553715800E-3	-1.684287295E-2
17.7	-9.703356932E-2	-8.160963090E-3	-8.659171316E-3
17.71	-1.893095766E-1	-7.476630424E-5	3.213735917E-3
17.72	-2.670398435E-1	-3.438008353E-3	1.193127564E-2
17.73	-3.368429027E-1	-4.679730105E-3	1.652662739E-2
17.740000000000002	-3.737357031E-1	-3.147872900E-5	1.693443904E-2
17.75	-3.738864457E-1	6.762308005E-3	1.346315990E-2
17.76	-3.297021343E-1	-2.028551899E-3	6.870643266E-3
17.77	-2.453103197E-1	2.043663612E-3	-5.226980308E-3
17.78	-1.343908477E-1	2.532220096E-4	-1.801645309E-2
17.79	-6.937921002E-3	-3.369758478E-3	-2.554899193E-2
17.8	1.251312353E-1	-2.120615979E-3	-1.981974418E-2
17.81	2.430641044E-1	-1.607629832E-3	-2.653192183E-3
17.82	3.256686417E-1	-3.991100564E-3	1.882018636E-2
17.830000000000002	3.656033664E-1	-3.063213930E-3	2.749307536E-2
17.84	3.562454065E-1	1.378853336E-3	1.793728359E-2
17.85	2.947903406E-1	-2.347643260E-3	1.389166202E-3
17.86	2.012709106E-1	7.229815164E-4	-1.920371403E-2
17.87	9.075881293E-2	9.091928956E-3	-2.593340515E-2
17.88	-2.365619662E-2	-2.868363521E-4	-1.024753868E-2
17.89	-1.269207119E-1	7.340172652E-3	9.646059373E-3
17.900000000000002	-1.928773247E-1	1.045263478E-2	1.910814891E-2
17.91	-2.262322545E-1	6.483712863E-3	1.628946101E-2
17.92	-2.174957352E-1	3.648812757E-3	1.102492682E-3
17.93	-1.836985358E-1	4.679704513E-3	-1.529414005E-2
17.94	-1.274025458E-1	-1.324776520E-3	-2.047250236E-2
17.95	-6.469636072E-2	-6.822775330E-3	-1.359399190E-2
17.96	-8.625690326E-3	-4.358922317E-3	-7.574876511E-6
17.97	3.057975029E-2	-6.787013268E-3	1.209557283E-2
17.98	4.378910041E-2	-9.935983367E-3	1.815399575E-2
17.990000000000002	3.806972445E-2	-9.311484897E-3	1.502944372E-2
18.0	5.130082548E-3	-3.613493790E-3	7.731865417E-3
18.01	-3.898435880E-2	-1.201416972E-2	-9.090935198E-4
18.02	-8.694011336E-2	-1.024448214E-3	-7.501813925E-3
18.03	-1.215211826E-1	1.623873718E-3	-1.305454880E-2
18.04	-1.448224412E-1	7.145546117E-4	-1.520749440E-2
18.05	-1.383205520E-1	1.895374928E-3	-1.121054997E-2
18.06	-1.128944640E-1	8.702198553E-3	-3.363421126E-3
18.07	-6.123715428E-2	4.788001311E-3	8.196342733E-3
18.080000000000002	5.758343510E-4	6.171511220E-3	1.559056358E-2
18.09	7.095580896E-2	6.713597396E-3	1.274239092E-2
18.1	1.410308732E-1	3.244172160E-3	1.718355516E-3
18.11	1.992932976E-1	1.609602545E-3	-1.146930089E-2
18.12	2.401723839E-1	3.521159582E-3	-1.708358771E-2
18.13	2.597266401E-1	2.138121761E-3	-1.088940968E-2
18.14	2.628754501E-1	-4.910911564E-3	5.344890878E-3
18.150000000000002	2.398592677E-1	2.771191203E-3	1.662757812E-2
18.16	2.052050556E-1	-2.726582911E-3	1.862091670E-2
18.17	1.512506907E-1	-5.610948134E-3	3.823541010E-3
18.18	8.539390000E-2	-2.085014531E-3	-1.529936925E-2
18.19	6.792394026E-3	-1.309129213E-5	-2.651353230E-2
18.2	-6.724532504E-2	-3.903764661E-3	-2.001181950E-2
18.21	-1.404299342E-1	2.537549058E-3	-2.561352620E-3
18.22	-2.062309915E-1	-3.118881849E-4	1.488063598E-2
18.23	-2.595591577E-1	-1.175284573E-3	2.490716196E-2
18.240000000000002	-2.880051014E-1	3.616128794E-4	2.231263075E-2
18.25	-2.930835706E-1	3.300377209E-4	1.178323669E-2
18.26	-2.675066212E-1	-4.627268276E-4	-7.973399556E-4
18.27	-2.129771267E-1	1.061043862E-3	-9.872411391E-3
18.28	-1.301919525E-1	5.634160016E-3	-1.279828419E-2
18.29	-2.976864350E-2	-2.503884668E-3	-1.084514839E-2
18.3	7.695927644E-2	-3.322998241E-3	-8.048519658E-3
18.31	1.861721123E-1	-2.413423087E-3	-2.056459090E-3
18.32	2.675634133E-1	-7.368589376E-3	4.296039590E-3
18.330000000000002	3.187179066E-1	-1.531553782E-3	1.089623922E-2
18.34	3.341588510E-1	3.272136871E-3	8.414484361E-3
18.35	3.082760109E-1	-2.844952371E-3	4.521910051E-3
18.36	2.468095658E-1	2.150117346E-3	-5.362582519E-3
18.37	1.589707712E-1	5.025288972E-3	-1.017658214E-2
18.38	6.363648701E-2	2.322054976E-3	-9.862913302E-3
18.39	-2.836360089E-2	5.493855850E-3	-5.894057140E-4
18.400000000000002	-1.070233570E-1	1.149325059E-2	1.174782405E-2
18.41	-1.559240662E-1	8.347844130E-3	1.629004131E-2
18.42	-1.694373271E-1	4.339467969E-3	7.749164895E-3
18.43	-1.506057193E-1	5.611458034E-3	-8.575321965E-3
18.44	-1.092899784E-1	7.028393375E-4	-2.221429076E-2
18.45	-5.664382838E-2	-6.050649407E-3	-2.207100771E-2
18.46	1.265044017E-3	-1.120553639E-3	-1.140523305E-2
18.47	4.122233802E-2	-3.779769872E-3	9.518361882E-3
18.48	5.621576538E-2	-9.392230491E-3	2.389379687E-2
18.490000000000002	4.737334619E-2	-6.378793742E-3	2.275173793E-2
18.5	1.241302203E-2	-7.412323680E-3	1.097876201E-2
18.51	-4.323995496E-2	-1.291850899E-2	-4.287205119E-3
18.52	-1.105980337E-1	-4.198654898E-3	-1.262989270E-2
18.53	-1.721305218E-1	2.234230528E-3	-1.292186366E-2
18.54	-2.151905531E-1	2.605275670E-3	-5.590687353E-3
18.55	-2.345211159E-1	4.605994124E-3	1.931539873E-3
18.56	-2.185747658E-1	6.656580206E-3	5.061270097E-3
18.57	-1.715642099E-1	1.826571853E-3	5.112561384E-3
18.580000000000002	-9.931766726E-2	2.120941510E-3	2.247071616E-3
18.59	-1.198115674E-2	8.683862393E-3	-5.678558982E-4
18.6	7.775711791E-2	4.465346271E-3	-1.088098189E-3
18.61	1.670242513E-1	3.370369711E-4	-2.021936080E-3
18.62	2.364221176E-1	3.332083766E-3	-2.497763506E-3
18.63	2.716517357E-1	-1.168253465E-4	-2.239225231E-3
18.64	2.796204961E-1	-4.088023182E-3	4.679781297E-3
18.650000000000002	2.541760696E-1	2.241480026E-3	1.038082729E-2
18.66	2.100132088E-1	9.931588628E-4	1.325837621E-2
18.67	1.406471520E-1	6.207579648E-5	7.902119239E-3
18.68	6.057776805E-2	1.380304566E-3	-5.961737352E-3
18.69	-2.182712604E-2	1.346623872E-3	-2.076564183E-2
18.7	-1.001094781E-1	-1.437545445E-3	-2.400435795E-2
18.71	-1.682464406E-1	-3.741158498E-4	-1.469057790E-2
18.72	-2.217916185E-1	7.854824890E-4	2.439526158E-3
18.73	-2.622695195E-1	-2.964663234E-3	2.061533580E-2
18.740000000000002	-2.789630653E-1	-8.064126494E-4	2.765171808E-2
18.75	-2.753079862E-1	-6.888913358E-4	2.037433677E-2
18.76	-2.555152373E-1	-3.047994564E-3	8.943909897E-4
18.77	-2.048840666E-1	-4.972453957E-3	-1.508156543E-2
18.78	-1.459366023E-1	1.049934004E-3	-1.876233449E-2
18.79	-6.629089941E-2	-2.895135756E-3	-8.818219802E-3
18.8	1.202018212E-2	-1.827895965E-3	1.814695695E-3
18.81	9.346995845E-2	-2.650817319E-3	5.804716094E-3
18.82	1.666302790E-1	-4.728532354E-3	3.078363165E-3
18.830000000000002	2.221985999E-1	-6.611057150E-3	-1.775044094E-3
18.84	2.505163735E-1	-6.330154144E-4	-6.321949658E-3
18.85	2.533664383E-1	2.855928514E-3	-7.218354842E-3
18.86	2.269434656E-1	5.486841240E-4	-4.161962172E-3
18.87	1.783934762E-1	6.315991035E-3	-1.957158046E-3
18.88	1.172155308E-1	6.425073191E-3	1.465489273E-3
18.89	4.810326858E-2	4.596582597E-3	6.140701056E-3
18.900000000000002	-1.113330189E-2	5.746875373E-3	7.799718305E-3
18.91	-6.520470132E-2	1.418222645E-2	8.589216569E-3
18.92	-8.644413699E-2	1.708435539E-3	7.230230668E-3
18.93	-8.310566892E-2	7.945809785E-3	-3.384736678E-3
18.94	-5.201242265E-2	2.721032880E-3	-1.478311626E-2
18.95	-9.230227700E-3	-1.073039944E-3	-1.969266347E-2
18.96	3.939635158E-2	-6.378177908E-3	-1.519501431E-2
18.97	7.672805431E-2	-4.425419126E-3	-8.884830770E-4
18.98	9.928422996E-2	-7.693115212E-3	1.463901561E-2
18.990000000000002	9.636460750E-2	-8.673037362E-3	2.206791943E-2
19.0	6.491415784E-2	-7.654149307E-3	1.602113760E-2
19.01	1.200612873E-2	-7.680746061E-3	2.666015005E-3
19.02	-5.692534875E-2	-7.182727991E-3	-1.048316579E-2
19.03	-1.282210638E-1	-3.991508259E-3	-1.601420349E-2
19.04	-1.932156569E-1	3.451470553E-3	-1.138412914E-2
19.05	-2.315609944E-1	2.350638774E-4	2.717748415E-3
19.06	-2.442708765E-1	6.703697790E-3	1.323103557E-2
19.07	-2.092379605E-1	6.611760605E-3	1.078514705E-2
19.080000000000002	-1.446184551E-1	3.966646168E-3	1.300283769E-3
19.09	-5.410956789E-2	1.801244552E-3	-8.804949290E-3
19.1	5.246803159E-2	6.848432906E-3	-1.364920493E-2
19.11	1.552549487E-1	1.387828547E-3	-1.062110633E-2
19.12	2.459612003E-1	1.359609942E-3	-1.767373187E-3
19.13	3.116611722E-1	3.200951836E-3	7.303365397E-3
19.14	3.390023289E-1	-9.129531954E-4	1.249703442E-2
19.150000000000002	3.275686992E-1	-5.166945483E-3	1.188568721E-2
19.16	2.751670993E-1	-6.648883483E-4	6.904035905E-3
19.17	2.012098425E-1	6.576115663E-4	1.628704479E-3
19.18	1.086607701E-1	-4.421789170E-3	-6.198669197E-3
19.19	8.697745077E-3	-9.872214994E-4	-1.388626920E-2
19.2	-8.215418949E-2	4.859139826E-3	-1.669192772E-2
19.21	-1.633564388E-1	-5.592922594E-3	-1.521306386E-2
19.22	-2.294545924E-1	4.081567649E-3	-3.230527541E-3
19.23	-2.571392332E-1	2.804979209E-3	1.279816280E-2
19.240000000000002	-2.703501564E-1	-2.309115389E-3	2.146263073E-2
19.25	-2.606258229E-1	-2.877961177E-3	2.091489757E-2
19.26	-2.369851325E-1	1.225225730E-4	9.177523478E-3
19.27	-1.964615871E-1	-5.560211033E-3	-6.246572666E-3
19.28	-1.510989140E-1	-4.547745325E-3	-1.435712173E-2
19.29	-9.709543311E-2	-3.231190162E-3	-1.094543035E-2
19.3	-3.964899321E-2	-5.234557416E-3	-3.768097368E-4
19.31	1.326152648E-2	-5.323048260E-3	1.062657008E-2
19.32	5.988785781E-2	-2.352083874E-3	1.175048092E-2
19.330000000000002	9.659761107E-2	-1.352675316E-3	3.424281106E-3
19.34	1.237748083E-1	-4.781817288E-3	-8.369002915E-3
19.35	1.337841369E-1	3.685079693E-3	-1.653553088E-2
19.36	1.316867913E-1	4.384195332E-3	-1.624436726E-2
19.37	1.079698170E-1	4.050921921E-3	-3.060010573E-3
19.38	8.018272172E-2	4.938692127E-3	1.122183452E-2
19.39	4.489868086E-2	6.761641261E-3	1.548073021E-2
19.400000000000002	7.430955921E-3	1.602710609E-3	1.276815979E-2
19.41	-2.373705458E-2	2.751227621E-3	6.835693940E-3
19.42	-4.184828141E-2	5.661080233E-3	-8.915314176E-4
19.43	-4.750117164E-2	5.049506786E-3	-7.310928021E-3
19.44	-3.533440798E-2	3.630546226E-3	-1.044842448E-2
19.45	-1.000360210E-2	3.585489813E-3	-1.126141896E-2
19.46	2.309614162E-2	-8.451240024E-4	-9.461129805E-3
19.47	5.196493619E-2	-7.055714301E-3	-4.232392711E-3
19.48	6.827696474E-2	-5.820367265E-3	3.101317387E-3
19.490000000000002	6.987191614E-2	-5.975757911E-3	1.021880108E-2
19.5	4.520766768E-2	-6.844056557E-3	1.294141472E-2
19.51	4.578618957E-3	-5.089182880E-3	7.862326005E-3
19.52	-6.087789883E-2	-2.787874367E-3	-2.457669875E-3
19.53	-1.300818120E-1	-7.582983103E-3	-7.793859145E-3
19.54	-1.932162030E-1	-1.682759227E-3	-1.090619066E-2
19.55	-2.411635984E-1	2.393616333E-3	-7.123337716E-4
19.56	-2.643761583E-1	1.071662335E-3	9.954699140E-3
19.57	-2.461795618E-1	5.202418996E-3	1.418656892E-2
19.580000000000002	-1.944724356E-1	8.855797995E-3	8.087030748E-3
19.59	-1.101427173E-1	4.612506602E-3	-5.573171279E-3
19.6	-6.545773566E-3	1.995930447E-3	-1.789108751E-2
19.61	1.095523385E-1	9.786861039E-4	-1.986335319E-2
19.62	2.209375310E-1	-1.957696285E-3	-1.152540307E-2
19.63	3.078922204E-1	-2.045259776E-3	4.275754663E-3
19.64	3.704134460E-1	2.216090578E-3	1.873011979E-2
19.650000000000002	3.860730338E-1	2.517521653E-3	1.931167316E-2
19.66	3.496931995E-1	5.774143078E-4	1.279148708E-2
19.67	2.724141325E-1	-4.022326793E-3	-5.145887038E-3
19.68	1.812898601E-1	1.983289693E-3	-1.091781010E-2
19.69	7.706108588E-2	5.094695358E-3	-1.511528439E-2
19.7	-2.695578575E-2	1.530150804E-3	-1.203158902E-2
19.71	-1.109796661E-1	1.159407573E-2	-5.994581490E-3
19.72	-1.697363548E-1	1.592630993E-3	-6.548288814E-4
19.73	-2.067270696E-1	-2.322525921E-3	3.947336333E-3
19.740000000000002	-2.163598334E-1	1.572636191E-3	6.033140520E-3
19.75	-2.033912996E-1	7.784506932E-4	7.857123519E-3
19.76	-1.710453904E-1	-2.320553061E-3	6.541817616E-3
19.77	-1.288142788E-1	-1.805115020E-3	1.258406877E-3
19.78	-8.428165509E-2	-3.011187786E-3	-3.895235578E-3
19.79	-3.844750340E-2	-8.806407658E-3	-5.417965140E-3
19.8	-1.661082748E-3	-3.843874723E-3	-2.809207765E-3
19.81	3.043695639E-2	-1.392534103E-3	5.248781541E-3
19.82	5.370381127E-2	-7.993827488E-3	1.139235149E-2
19.830000000000002	6.458114634E-2	-3.693841126E-3	8.713671068E-3
19.84	7.156832495E-2	1.894201958E-3	-3.104766817E-3
19.85	7.496922642E-2	-7.642315275E-5	-1.584105868E-2
19.86	7.441461070E-2	-5.053322295E-4	-1.970573055E-2
19.87	7.131815652E-2	3.914519538E-3	-1.273521913E-2
19.88	6.588748665E-2	2.307133711E-3	1.741308696E-3
19.89	5.554581176E-2	1.917018566E-3	1.554749141E-2
19.900000000000002	4.390769134E-2	7.652376566E-3	1.914894710E-2
19.91	3.669175993E-2	6.596820999E-3	1.404492030E-2
19.92	2.980713497E-2	4.186785168E-3	1.434105271E-3
19.93	2.814610351E-2	3.580783695E-3	-1.047155517E-2
19.94	3.069556573E-2	4.572205149E-3	-1.462523456E-2
19.95	4.001825588E-2	1.263754842E-3	-9.527074100E-3
19.96	4.811574469E-2	2.303155039E-3	-3.289941451E-3
19.97	5.683925401E-2	-1.642489161E-3	1.346250871E-3
19.98	5.668698202E-2	-7.086904075E-3	5.214258531E-3
19.990000000000002	4.809198047E-2	-7.627934700E-3	3.034135496E-3
20.0	1.774253562E-2	-3.119978931E-3	7.706261040E-4
20.01	-2.422763436E-2	-6.257526651E-3	6.431334854E-4
20.02	-8.345601208E-2	-3.468225523E-3	-7.399153946E-5
20.03	-1.461191073E-1	-2.033278389E-3	-1.083630902E-3
20.04	-2.067085398E-1	-2.011589885E-3	-1.985015214E-4
20.05	-2.577973142E-1	-7.914526330E-4	2.729196398E-3
20.06	-2.899870204E-1	1.560297923E-3	6.828385451E-3
20.07	-2.906191542E-1	3.528119249E-3	1.086020801E-2
20.080000000000002	-2.592403923E-1	-1.911598172E-3	1.053042064E-2
20.09	-1.978059704E-1	6.491751909E-3	6.039879087E-4
20.1	-9.911808999E-2	2.353013297E-3	-1.057672557E-2
20.11	5.798431003E-3	1.587944369E-5	-1.889385806E-2
20.12	1.199566323E-1	-7.619631219E-4	-1.684865286E-2
20.13	2.231468214E-1	-2.204647984E-3	-4.874299666E-3
20.14	2.965854276E-1	-4.018494513E-3	1.236298213E-2
20.150000000000002	3.296146839E-1	1.084207546E-3	2.005646680E-2
20.16	3.200920250E-1	-3.059811092E-5	1.637433091E-2
20.17	2.772943380E-1	-2.616486399E-3	5.439655335E-3
20.18	2.000631092E-1	2.374719104E-3	-8.835123930E-3
20.19	1.030979143E-1	2.959166441E-3	-1.665774693E-2
20.2	-2.204059259E-3	-1.877695199E-3	-1.258458485E-2
20.21	-9.418311859E-2	4.728980975E-3	-3.097078257E-3
20.22	-1.664337219E-1	9.905822892E-3	3.543580970E-3
20.23	-2.157798563E-1	3.063912430E-4	7.770296434E-3
20.240000000000002	-2.287551488E-1	3.300975692E-3	4.914830698E-3
20.25	-2.101329484E-1	1.121266497E-3	-9.752370358E-5
20.26	-1.779363039E-1	-2.945292039E-3	-2.398092878E-3
20.27	-1.294605548E-1	-2.566359121E-3	-2.477694793E-3
20.28	-7.628655690E-2	-3.310476538E-3	-1.479869129E-3
20.29	-2.851941731E-2	-5.863578482E-3	8.588791197E-4
20.3	6.311080453E-3	-6.346880021E-3	3.863198623E-3
20.31	3.138089221E-2	-4.146660412E-3	5.436015787E-3
20.32	3.781247140E-2	-4.827336475E-3	5.064600652E-3
20.330000000000002	3.791165303E-2	-9.846940365E-3	4.940458635E-3
20.34	2.676850434E-2	2.162612603E-3	-5.361279779E-4
20.35	1.948721628E-2	-1.375336579E-3	-7.467846082E-3
20.36	1.254180823E-2	1.054771142E-3	-1.376118524E-2
20.37	1.631193836E-2	4.880019766E-3	-1.299781546E-2
20.38	2.495806287E-2	5.546819989E-3	-5.523408553E-3
20.39	4.054776560E-2	2.814940039E-3	6.491857866E-3
20.400000000000002	5.937800779E-2	6.747268975E-3	1.540760079E-2
20.41	8.088184140E-2	6.595592967E-3	1.676848475E-2
20.42	1.018205236E-1	4.144364223E-3	8.595618541E-3
20.43	1.198734408E-1	4.434579020E-3	-3.579178824E-3
20.44	1.345134772E-1	3.241299067E-3	-1.306056370E-2
20.45	1.402287258E-1	-1.028424229E-3	-1.374484410E-2
20.46	1.410367348E-1	-1.636459600E-3	-5.713077185E-3
20.47	1.312492694E-1	1.795029755E-3	3.819409456E-3
20.48	1.147779788E-1	-6.303521719E-3	8.040472368E-3
20.490000000000002	8.762389188E-2	-3.674576072E-3	4.929082894E-3
20.5	5.152121703E-2	-3.703449805E-3	-2.917400433E-3
20.51	5.504279647E-3	-4.838963468E-3	-8.410360017E-3
20.52	-4.804724496E-2	-3.286915193E-3	-7.371234532E-3
20.53	-1.069553648E-1	6.595837810E-4	-2.074426314E-3
20.54	-1.625357067E-1	-1.621803369E-3	4.648672441E-3
20.55	-2.081871674E-1	-2.236543668E-3	7.678058132E-3
20.56	-2.372617859E-1	-4.707316315E-4	8.359117419E-3
20.57	-2.480322224E-1	-7.492165678E-4	7.255179121E-3
20.580000000000002	-2.314303923E-1	-3.150054633E-4	2.885975490E-3
20.59	-1.879335867E-1	3.104542468E-3	-2.626241347E-3
20.6	-1.163220560E-1	5.265644465E-3	-8.409684798E-3
20.61	-2.749303943E-2	-5.966828835E-4	-1.227442607E-2
20.62	6.885895335E-2	8.789916818E-5	-1.282991545E-2
20.63	1.707419599E-1	-5.967018268E-4	-9.995607039E-3
20.64	2.465631903E-1	-6.740048635E-3	-8.174414320E-4
20.650000000000002	2.960035719E-1	-8.898060396E-4	1.350691178E-2
20.66	3.110052640E-1	3.194396635E-3	1.725426729E-2
20.67	2.854632336E-1	-1.968513605E-3	1.048359426E-2
20.68	2.289913961E-1	1.172581066E-4	-6.802893897E-4
20.69	1.490308168E-1	5.213487793E-3	-1.024374485E-2
20.7	5.598592891E-2	2.403439289E-3	-1.208468383E-2
20.71	-3.941309182E-2	3.648238901E-4	-8.354153935E-3
20.72	-1.190956213E-1	7.576593082E-3	5.471777319E-4
20.73	-1.848937189E-1	2.176741783E-3	9.069963792E-3
20.740000000000002	-2.163661604E-1	-4.886844775E-4	1.008674545E-2
20.75	-2.128389772E-1	2.617354916E-3	5.555082981E-4
20.76	-1.905396162E-1	-1.686476985E-3	-7.282714746E-3
20.77	-1.467823735E-1	-4.326311535E-3	-8.995618971E-3
20.78	-9.714219679E-2	-1.221301433E-3	-4.577745101E-3
20.79	-5.172189523E-2	-4.187238838E-3	4.138628343E-3
20.8	-1.810829914E-2	-8.482414681E-3	1.059943718E-2
20.81	8.027576173E-4	-6.956698653E-3	1.108265151E-2
20.82	4.541919945E-3	-6.021987274E-3	7.714371088E-3
20.830000000000002	-9.741963045E-3	-7.208065636E-3	2.385351317E-3
20.84	-3.371692409E-2	-4.046651002E-3	-3.414376875E-3
20.85	-6.357951273E-2	3.669382308E-3	-7.880414626E-3
20.86	-8.233726950E-2	-6.053202429E-4	-7.628797538E-3
20.87	-8.906410622E-2	2.075630311E-3	-7.413305214E-3
20.88	-8.066262354E-2	6.288064543E-3	-5.028108260E-3
20.89	-5.842208365E-2	2.638383371E-3	5.703768150E-4
20.900000000000002	-1.969297467E-2	3.204177764E-3	6.361689280E-3
20.91	2.317414153E-2	8.673928496E-3	9.359458250E-3
20.92	7.244501381E-2	3.562461991E-3	8.246406176E-3
20.93	1.174477948E-1	2.878912661E-3	2.599684099E-3
20.94	1.526912106E-1	3.982543621E-3	-6.067117354E-3
20.95	1.710991992E-1	4.808181597E-4	-9.550331562E-3
20.96	1.726756488E-1	-9.168449506E-4	-5.953980492E-3
20.97	1.609471943E-1	9.602507201E-4	2.344554953E-4
20.98	1.322541920E-1	5.438525386E-4	5.631607177E-3
20.990000000000002	9.225911055E-2	-3.446965289E-3	7.272023187E-3
21.0	4.306567486E-2	-1.761351241E-3	4.408365214E-4
21.01	-7.097979145E-3	-3.184060148E-3	-8.478016267E-3
21.02	-6.209213092E-2	-3.255863397E-3	-1.279451221E-2
21.03	-1.156821286E-1	-3.147005763E-3	-1.025128712E-2
21.04	-1.620665769E-1	1.086359741E-3	1.154628825E-3
21.05	-1.996721132E-1	-2.250101517E-3	1.217286244E-2
21.06	-2.206332834E-1	-4.986535267E-4	1.683209459E-2
21.07	-2.250940949E-1	4.483632946E-4	1.275729214E-2
21.080000000000002	-2.102442247E-1	-1.135201628E-3	5.250199960E-3
21.09	-1.747661019E-1	-1.271973425E-3	-3.216213007E-3
21.1	-1.189866791E-1	1.567666489E-3	-9.399367849E-3
21.11	-4.881722744E-2	9.205072574E-4	-1.094105387E-2
21.12	3.298135746E-2	-2.540171363E-3	-7.082359087E-3
21.13	1.233204926E-1	2.954378251E-3	-5.337384841E-3
21.14	1.959962668E-1	-1.874969701E-3	-4.087760844E-3
21.150000000000002	2.562154266E-1	-5.130567745E-3	3.409945532E-3
21.16	2.883795031E-1	3.723148112E-3	6.381884387E-3
21.17	2.904967046E-1	-8.152021523E-4	6.127792530E-3
21.18	2.642416729E-1	-2.090109166E-3	2.627054552E-3
21.19	2.119532598E-1	2.770886097E-3	-3.448918959E-3
21.2	1.410142520E-1	4.422166976E-3	-5.676765789E-3
21.21	6.041011754E-2	2.523668988E-3	-4.771628273E-3
21.22	-1.564429555E-2	5.844334288E-3	-9.294541950E-4
21.23	-7.928977138E-2	8.355211581E-3	4.397799389E-3
21.240000000000002	-1.249281584E-1	3.827591214E-3	7.340151170E-3
21.25	-1.420041715E-1	4.385727543E-3	3.218084672E-3
21.26	-1.317514452E-1	3.919750164E-3	-5.718313560E-3
21.27	-1.033534570E-1	-2.448386424E-3	-1.094638275E-2
21.28	-6.119201531E-2	-5.768176641E-3	-1.016507497E-2
21.29	-2.104036773E-2	-2.084275678E-4	-2.563278120E-3
21.3	1.311525369E-2	-7.016529671E-3	8.343469756E-3
21.31	3.269997321E-2	-8.193771436E-3	1.522924784E-2
21.32	3.257116661E-2	-5.842411229E-3	1.293099354E-2
21.330000000000002	1.431574102E-2	-6.980984833E-3	6.179453233E-3
21.34	-1.803432961E-2	-6.077508654E-3	-3.461164137E-3
21.35	-5.656186802E-2	5.185573350E-4	-9.879063715E-3
21.36	-9.330216123E-2	2.211117489E-3	-1.023886381E-2
21.37	-1.192864461E-1	1.768795074E-3	-6.518873941E-3
21.38	-1.231954254E-1	4.751218950E-3	-1.066155377E-3
21.39	-1.068339371E-1	5.532263193E-3	2.418314317E-3
21.400000000000002	-6.849643667E-2	1.026950453E-3	3.205458024E-3
21.41	-1.578431752E-2	3.714538220E-3	1.594085367E-3
21.42	4.404114788E-2	7.417044782E-3	8.602704392E-4
21.43	1.086670126E-1	-8.102645240E-4	6.844962629E-4
21.44	1.613291376E-1	6.938811624E-4	-7.610732986E-4
21.45	2.003485572E-1	2.339510253E-3	-1.881055557E-3
21.46	2.150461084E-1	-3.285535156E-3	-8.957062219E-4
21.47	2.035245743E-1	-2.327573493E-3	8.533336475E-4
21.48	1.696163724E-1	7.937392299E-6	1.530237915E-3
21.490000000000002	1.173794021E-1	-1.582947221E-3	1.723765793E-3
21.5	5.383321421E-2	-3.002486310E-3	-4.692274822E-5
21.51	-1.473702800E-2	1.989717566E-3	-5.655823043E-3
21.52	-8.255362521E-2	-3.018755016E-5	-9.843370684E-3
21.53	-1.460271989E-1	-5.232834544E-3	-1.079812398E-2
21.54	-1.943793341E-1	2.830899496E-3	-3.747569223E-3
21.55	-2.285121271E-1	-1.531042751E-3	6.320092077E-3
21.56	-2.491382566E-1	-4.427153115E-3	1.531208007E-2
21.57	-2.477338660E-1	-1.420262553E-3	1.680476362E-2
21.580000000000002	-2.321104466E-1	-1.593838956E-3	1.025995860E-2
21.59	-2.008808648E-1	-3.612246241E-3	-7.192005786E-5
21.6	-1.562114989E-1	-6.832902468E-4	-7.665043958E-3
21.61	-9.856857128E-2	-5.197747298E-4	-9.550694246E-3
21.62	-3.529330435E-2	-2.415727782E-3	-6.284394033E-3
21.63	2.921286807E-2	-1.127428297E-3	-3.464055957E-4
21.64	9.456574331E-2	-5.108937881E-4	3.775087694E-3
21.650000000000002	1.509200777E-1	-4.658034172E-3	4.753843645E-3
21.66	1.901360009E-1	-3.894765201E-3	9.532287342E-4
21.67	2.080375674E-1	-1.014297755E-4	-1.906571603E-3
21.68	2.053238119E-1	-7.901539168E-4	-1.444390914E-3
21.69	1.794979156E-1	-1.077737740E-3	1.511749382E-3
21.7	1.336046632E-1	4.679929551E-3	3.633237531E-3
21.71	8.138869746E-2	2.209379479E-3	4.927406631E-3
21.72	2.392873541E-2	1.317001324E-3	3.806546857E-3
21.73	-3.190288548E-2	6.835283462E-3	3.240534166E-3
21.740000000000002	-7.350798001E-2	6.464852516E-3	2.057424882E-3
21.75	-9.507783987E-2	3.918038665E-3	1.048170101E-3
21.76	-9.608160821E-2	4.188385344E-3	-2.343330763E-3
21.77	-8.194012817E-2	1.273145050E-3	-7.108135940E-3
21.78	-5.318845521E-2	-4.096762567E-3	-8.691274367E-3
21.79	-1.710288872E-2	-5.003373649E-3	-5.865930220E-3
21.8	1.257467817E-2	-4.355023827E-3	2.431303361E-3
21.81	3.063998350E-2	-7.844898848E-3	1.117690089E-2
21.82	3.408480457E-2	-6.636049007E-3	1.587410600E-2
21.830000000000002	2.255141090E-2	-4.039564457E-3	1.238255153E-2
21.84	-6.170199650E-3	-7.428148017E-3	4.015110697E-3
21.85	-4.687794345E-2	-4.152139627E-3	-4.658319078E-3
21.86	-8.566288078E-2	1.444236766E-3	-9.103847766E-3
21.87	-1.170757260E-1	6.338314455E-4	-5.184193497E-3
21.88	-1.331502522E-1	3.142629349E-3	7.124870427E-4
21.89	-1.275391538E-1	6.573373077E-3	5.542587392E-3
21.900000000000002	-9.397999323E-2	5.041083725E-3	6.090858374E-3
21.91	-4.003311747E-2	3.782884983E-3	1.692521583E-3
21.92	2.975490053E-2	5.517419599E-3	-4.623886494E-3
21.93	1.102902855E-1	3.875666384E-3	-6.726030013E-3
21.94	1.817324622E-1	-1.080445631E-3	-2.078351949E-3
21.95	2.411423666E-1	3.366845341E-3	4.183097395E-3
21.96	2.763287883E-1	1.726355496E-3	6.922728961E-3
21.97	2.806437291E-1	-2.393843049E-3	7.573039528E-3
21.98	2.577907432E-1	-1.186824765E-3	5.196863511E-3
21.990000000000002	2.076726283E-1	2.023604895E-5	2.306047777E-3
22.0	1.404316303E-1	-2.042578659E-3	-1.042723833E-3
22.01	5.963211878E-2	1.336121978E-3	-5.877683480E-3
22.02	-2.203429971E-2	3.570661944E-3	-8.439052615E-3
22.03	-9.395913110E-2	-8.875950398E-4	-6.725800439E-3
22.04	-1.575580560E-1	-1.472979363E-3	-3.902639052E-3
22.05	-1.989775645E-1	3.006858800E-3	2.564016679E-3
22.06	-2.194781895E-1	-8.563907022E-4	1.058459711E-2
22.07	-2.191268389E-1	-2.054509096E-3	1.402560900E-2
22.080000000000002	-2.043671881E-1	2.032131974E-3	1.327891002E-2
22.09	-1.724946389E-1	-4.036489915E-3	7.476049054E-3
22.1	-1.299904381E-1	-3.358966044E-3	-2.917628001E-3
22.11	-8.496587566E-2	-4.796214892E-4	-8.192553338E-3
22.12	-3.532091394E-2	-3.457007168E-3	-6.244640793E-3
22.13	1.287585321E-2	-2.280264130E-3	-6.470158287E-4
22.14	5.604562662E-2	4.799359830E-4	4.981787158E-3
22.150000000000002	9.182724461E-2	-1.275289877E-3	7.340811485E-3
22.16	1.211754963E-1	-3.102531268E-3	5.918872903E-3
22.17	1.372980788E-1	-5.183644311E-5	-1.996762043E-3
22.18	1.406267370E-1	1.831018452E-3	-5.680230757E-3
22.19	1.320985125E-1	1.982165150E-4	-2.473317821E-3
22.2	1.066483378E-1	4.968457945E-3	3.186563449E-3
22.21	7.699635668E-2	3.867142005E-3	8.788311089E-3
22.22	4.103559393E-2	4.240191720E-3	9.640915437E-3
22.23	3.972790642E-3	5.007071022E-3	8.074156145E-3
22.240000000000002	-2.880019237E-2	5.227720562E-3	3.541056016E-3
22.25	-5.183384655E-2	4.171945123E-3	-2.231839797E-3
22.26	-6.365210924E-2	4.085671052E-3	-6.226024592E-3
22.27	-6.534501066E-2	3.678195643E-3	-7.096687616E-3
22.28	-5.497574741E-2	9.428910502E-4	-4.904274205E-3
22.29	-3.821438392E-2	-1.752813484E-3	-2.124189040E-3
22.3	-2.107017596E-2	-4.185705211E-3	2.513204912E-3
22.31	-1.174237325E-2	-7.194872486E-3	7.247596499E-3
