Time (s)	Acceleration x (m/s^2)	Acceleration y (m/s^2)	Acceleration z (m/s^2)
0.0	1.612591902E-3	9.944768236E-4	-3.850009012E-3
0.01	6.760488845E-4	-7.310336750E-4	-5.193366452E-3
0.02	3.522956366E-4	-3.039552437E-4	-4.781449296E-3
0.03	-2.618752810E-4	-5.665856823E-4	-4.516895454E-3
0.04	-1.034993326E-3	1.047484768E-3	-3.671328466E-3
0.05	-8.090188563E-4	1.600942197E-3	-2.718752768E-3
0.06	4.049369321E-4	1.509378904E-3	-2.590208394E-3
0.07	1.158842752E-3	1.296912058E-3	-3.248774576E-3
0.08	1.702422211E-3	4.951416687E-4	-3.629538584E-3
0.09	2.746135449E-3	2.532879994E-4	-3.665731713E-3
0.1	2.648947873E-3	2.919166321E-4	-3.859962223E-3
0.11	2.384508111E-3	1.753049805E-4	-3.496934725E-3
0.12	1.415304849E-3	1.157465704E-3	-3.785369255E-3
0.13	9.968029059E-4	1.403406037E-3	-3.741766977E-3
0.14	1.011168370E-3	2.365875019E-3	-4.306819010E-3
0.15	1.827740766E-4	1.436925082E-3	-5.298926401E-3
0.16	-2.476569944E-4	-6.140103856E-4	-4.627247681E-3
0.17	-7.730245593E-4	1.150202626E-3	-3.773219718E-3
0.18	-8.520633455E-5	1.782003516E-3	-3.200872864E-3
0.19	1.155175445E-3	1.671048078E-3	-3.373991531E-3
0.2	1.445977116E-3	1.362799180E-3	-3.355391874E-3
0.21	2.096684828E-3	4.303872457E-4	-3.461064873E-3
0.22	3.057037865E-3	-3.156075544E-4	-4.070798654E-3
0.23	2.032322283E-3	4.931753993E-4	-4.266016579E-3
0.24	1.917709330E-3	1.203027107E-3	-3.646241148E-3
0.25	2.109598337E-3	2.880845011E-3	-3.714004463E-3
0.26	6.688675629E-4	2.259584095E-3	-3.253261288E-3
0.27	1.027781796E-3	1.269143107E-3	-3.822632795E-3
0.28	1.299430440E-3	4.687097655E-4	-3.597361612E-3
0.29	1.136816303E-3	-7.550145327E-4	-3.201643991E-3
0.3	1.441919776E-3	-5.647342722E-4	-2.741902946E-3
0.31	7.747717172E-4	1.580540742E-3	-3.002494799E-3
0.32	1.251220799E-4	2.845481633E-3	-3.723017740E-3
0.33	1.071694056E-3	3.312829657E-3	-3.486678171E-3
0.34	8.340941258E-4	2.053941613E-3	-2.740383174E-3
0.35000000000000003	5.369559484E-4	-7.590779982E-5	-2.714784995E-3
0.36	9.242204932E-4	-8.611810410E-4	-2.885588324E-3
0.37	9.221242899E-4	-7.258821249E-5	-2.706169712E-3
0.38	9.512175716E-4	8.839601264E-4	-2.668597269E-3
0.39	1.058080756E-3	2.761096183E-3	-3.323125815E-3
0.4	1.039656494E-3	2.717469260E-3	-3.124883090E-3
0.41000000000000003	1.504373709E-3	2.578480317E-3	-3.636481333E-3
0.42	3.541992701E-4	-7.908348134E-5	-2.884699869E-3
0.43	6.730023189E-4	-1.915276184E-3	-3.382288508E-3
0.44	2.707695707E-4	-1.554869359E-3	-3.456873154E-3
0.45	5.110676683E-4	6.594797769E-4	-2.539107370E-3
0.46	1.866569082E-3	3.412428646E-3	-2.594286966E-3
0.47000000000000003	2.695370128E-3	4.340977625E-3	-2.658018447E-3
0.48	1.822166009E-3	2.970506963E-3	-2.731399262E-3
0.49	1.278746741E-3	4.390300836E-4	-3.253334269E-3
0.5	1.991307223E-3	-1.303330815E-3	-2.814219117E-3
0.51	2.067681859E-3	-1.265458392E-3	-2.080218363E-3
0.52	6.872804559E-4	6.297918023E-4	-2.216212320E-3
0.53	1.639805678E-4	3.107827281E-3	-2.219300680E-3
0.54	6.913921672E-4	4.410672477E-3	-2.393763775E-3
0.55	1.597658993E-3	3.845395399E-3	-3.164662887E-3
0.56	1.320527397E-3	1.672722610E-3	-3.610651783E-3
0.5700000000000001	1.535019437E-3	-1.342264415E-3	-2.580096292E-3
0.58	1.669094870E-3	-2.607360544E-3	-2.625109720E-3
0.59	1.656644950E-3	-5.215321123E-4	-1.806284952E-3
0.6	1.795707851E-3	2.884080249E-3	-3.527120180E-3
0.61	2.604185933E-3	4.478318692E-3	-2.450902415E-3
0.62	2.148489961E-3	3.487910384E-3	-1.115395155E-3
0.63	2.060387906E-3	9.922966341E-4	-1.916175286E-3
0.64	1.213047365E-3	-1.063387731E-3	-2.423464823E-3
0.65	7.872626282E-4	-2.185406435E-3	-2.196814585E-3
0.66	7.700616547E-4	-5.330392914E-4	-2.445202552E-3
0.67	4.476479122E-4	2.328506366E-3	-1.966812724E-3
0.68	8.316992320E-4	4.240439756E-3	-1.457125711E-3
0.6900000000000001	1.868867288E-3	3.795692696E-3	-1.721083689E-3
0.7000000000000001	1.827579217E-3	1.188089473E-3	-1.772791823E-3
0.71	1.710948700E-3	-1.487819243E-3	-2.188514585E-3
0.72	2.096022196E-3	-2.871471302E-3	-2.332032447E-3
0.73	1.990353221E-3	1.389278451E-4	-2.021485802E-3
0.74	1.079163859E-3	1.770198120E-3	-1.882006693E-3
0.75	1.858715872E-3	3.987228645E-3	-3.612544107E-3
0.76	9.728612102E-4	3.104246928E-3	-2.113749552E-3
0.77	2.652507994E-4	1.925526727E-3	-2.087278062E-3
0.78	7.144504041E-4	4.272682099E-4	-1.549324670E-3
0.79	3.076920988E-4	-5.338710875E-4	-1.591107463E-3
0.8	9.766546381E-4	1.089467571E-3	-1.479932523E-3
0.81	1.256143162E-3	3.536544068E-3	-1.823737192E-3
0.8200000000000001	2.884583334E-3	4.052734001E-3	-1.706492471E-3
0.8300000000000001	2.736178200E-3	3.161835365E-3	-1.643478002E-3
0.84	2.359490211E-3	1.024896427E-3	-1.342648831E-3
0.85	2.511662254E-3	-9.670450925E-4	-1.231162119E-3
0.86	1.552640805E-3	-9.969247333E-4	-1.889807749E-3
0.87	5.331866072E-4	-3.978030600E-5	-2.201380280E-3
0.88	-7.903058694E-5	1.270735973E-3	-2.373584909E-3
0.89	-1.261072305E-5	1.905182226E-3	-2.385294908E-3
0.9	3.130320272E-4	6.452546081E-4	-1.948534867E-3
0.91	1.628872911E-3	1.249219625E-3	-1.350428629E-3
0.92	1.093528578E-3	4.924569139E-5	-1.476885843E-3
0.93	1.711232374E-3	-5.627124026E-4	-4.339476107E-4
0.9400000000000001	2.616558346E-3	-3.394556223E-4	-2.305133363E-3
0.9500000000000001	2.417482084E-3	9.933020794E-4	-1.748491904E-3
0.96	1.442524574E-3	1.573673129E-3	-1.817243248E-3
0.97	8.082453259E-4	1.365976872E-3	-1.272818096E-3
0.98	8.491291202E-4	1.604710741E-3	-7.488890169E-4
0.99	-6.315751901E-5	1.466230078E-3	-6.173010347E-4
1.0	-3.987983661E-4	1.176751158E-3	-1.155137343E-3
1.01	-1.616415678E-4	8.434021178E-4	-1.068289997E-3
1.02	9.969371034E-5	1.186694102E-3	-6.753412528E-4
1.03	1.065029544E-3	1.584337340E-3	-9.285993044E-4
1.04	2.225507209E-3	9.948594109E-4	-1.712271738E-3
1.05	1.475835005E-3	6.738449619E-4	-1.977526712E-3
1.06	2.023562750E-3	1.267204908E-3	-8.503357547E-4
1.07	2.235973706E-3	3.142677819E-4	2.706905470E-4
1.08	5.668045677E-4	-9.536411754E-5	6.013612272E-4
1.09	1.252656662E-3	2.616827399E-3	-1.825160577E-3
1.1	1.875646186E-4	1.215178572E-3	-5.800838132E-4
1.11	-8.587987625E-4	8.203703151E-4	-1.339346933E-3
1.12	-1.100143103E-6	1.326791792E-3	-1.256568002E-3
1.1300000000000001	4.974735739E-4	1.926856797E-3	1.687388994E-4
1.1400000000000001	3.833134939E-5	1.422648902E-3	-7.620925118E-4
1.1500000000000001	8.704521441E-4	1.439104870E-3	-1.116446173E-3
1.16	2.641943216E-3	1.587663062E-3	-8.938452252E-4
1.17	3.211918483E-3	9.090514467E-4	-9.044142244E-4
1.18	2.254429171E-3	6.679074080E-4	-1.329047251E-3
1.19	1.748409557E-3	1.469541963E-3	-1.233702767E-3
1.2	9.818586949E-4	1.100681122E-3	-2.977227611E-4
1.21	4.638469109E-5	9.987254882E-4	-6.424480981E-4
1.22	7.089509315E-4	1.480813455E-3	-1.399834569E-3
1.23	-1.161809107E-3	1.760620771E-3	-1.938559580E-3
1.24	-7.030798399E-4	1.228150500E-3	-1.271941232E-3
1.25	7.774950660E-4	6.401346610E-4	9.562773725E-5
1.26	1.601462864E-3	5.540482260E-4	-8.599871041E-5
1.27	1.316166871E-3	4.860874118E-4	-6.815412819E-4
1.28	2.361114780E-3	9.866234646E-4	-9.679289339E-4
1.29	3.038003752E-3	9.803026901E-4	-5.375357149E-4
1.3	2.352615786E-3	1.107034505E-3	-4.619768754E-4
1.31	2.143469451E-3	1.674878057E-3	-4.643210400E-4
1.32	1.518217309E-3	1.439294923E-3	6.181394575E-6
1.33	1.168794049E-3	8.837289432E-4	-4.426162167E-4
1.34	7.566404618E-4	1.235566962E-3	-8.357110804E-4
1.35	1.198211999E-6	1.947560383E-3	-6.148024080E-4
1.36	-6.179801115E-5	2.426265486E-3	-1.510842663E-4
1.37	9.813666991E-4	2.410471103E-3	2.553415169E-4
1.3800000000000001	2.059111707E-3	1.493371787E-3	-1.094549015E-4
1.3900000000000001	1.916952982E-3	7.610584254E-4	1.267193559E-4
1.4000000000000001	2.268959803E-3	1.380383568E-3	-9.066889492E-5
1.41	2.734993557E-3	1.426390334E-3	6.615380766E-4
1.42	2.246576706E-3	1.346902697E-3	-7.663031099E-4
1.43	1.321385342E-3	2.184115807E-3	3.396587653E-4
1.44	1.790995668E-3	1.304065878E-3	-4.168461572E-4
1.45	-4.295649941E-5	1.399996568E-3	3.747448472E-4
1.46	1.773500991E-4	1.613046730E-3	2.870536923E-4
1.47	1.328160772E-3	9.312695251E-4	-6.218595980E-4
1.48	1.477175514E-3	6.288338439E-4	-1.146895456E-3
1.49	7.245959872E-4	1.556168552E-3	-9.898731716E-4
1.5	7.511093948E-4	2.791036437E-3	-7.403630993E-5
1.51	1.125324080E-3	2.780742495E-3	5.760125639E-4
1.52	1.613932560E-3	1.497641800E-3	-8.170175348E-6
1.53	1.949965118E-3	4.516570419E-4	3.511308251E-5
1.54	1.299844775E-3	-1.201325835E-4	4.993366913E-4
1.55	1.605638019E-3	8.579392237E-4	-2.378416536E-5
1.56	1.043536767E-3	6.335957023E-4	-1.018688658E-5
1.57	-3.940745225E-5	1.502047254E-3	2.421121122E-4
1.58	-1.163466802E-5	3.045828416E-3	2.739858832E-6
1.59	-2.283512145E-4	2.924581798E-3	8.371722053E-4
1.6	-1.968654397E-4	5.469872378E-4	-4.704617406E-4
1.61	2.910321832E-3	1.567785033E-4	-3.306083238E-4
1.62	3.120933280E-3	7.009971035E-5	1.332079596E-4
1.6300000000000001	2.784374912E-3	5.187575086E-5	1.583705132E-4
1.6400000000000001	1.772333542E-3	1.336751430E-3	-1.637177447E-5
1.6500000000000001	2.167560769E-3	1.700930900E-3	-1.493551173E-4
1.6600000000000001	2.217723364E-3	9.731951620E-4	2.599800485E-4
1.67	1.093337545E-3	6.650342033E-4	5.128411772E-4
1.68	5.651021376E-4	7.295536365E-4	1.791401730E-4
1.69	-3.590134982E-6	8.769941826E-4	4.700942060E-5
1.7	-1.286499342E-3	1.397851481E-3	-6.684021929E-5
1.71	-1.255987488E-4	1.582492440E-3	3.217820646E-4
1.72	8.008029627E-4	1.575830316E-3	-1.167076640E-4
1.73	7.049327688E-4	5.713892784E-4	-2.560521617E-4
1.74	2.778089205E-3	1.001180111E-3	-4.464407442E-4
1.75	3.536784262E-3	1.035236174E-3	6.178827027E-4
1.76	1.957314635E-3	9.002675351E-4	1.251962375E-4
1.77	2.499787519E-3	2.113239168E-3	-4.721518038E-4
1.78	2.410914311E-3	2.313011213E-3	4.315690519E-4
1.79	3.382373295E-4	1.720855110E-3	5.052979712E-4
1.8	3.475520645E-4	1.158161646E-3	1.032118138E-3
1.81	-2.970064179E-4	8.248662820E-4	8.977334583E-4
1.82	-2.330735588E-4	8.439629390E-4	4.962007114E-4
1.83	9.029967617E-4	7.030580941E-4	1.761466959E-4
1.84	1.500335422E-3	-7.607211535E-4	-6.166937893E-5
1.85	1.352628223E-3	-1.421216103E-3	-9.057102778E-5
1.86	1.658982588E-3	-1.116790996E-4	-4.381652874E-4
1.87	3.076885799E-3	-1.022398967E-3	-2.382536409E-4
1.8800000000000001	3.716424862E-3	-3.088307783E-3	9.895257475E-4
1.8900000000000001	4.429378123E-3	-5.705934946E-3	-2.007021968E-5
1.9000000000000001	5.362313477E-3	-2.411680848E-2	1.155899195E-3
1.9100000000000001	7.451570938E-3	-4.732242920E-2	1.593373251E-3
1.92	7.214124223E-3	-7.836836697E-2	3.698280589E-3
1.93	7.966188219E-3	-1.276550450E-1	2.105990324E-3
1.94	6.877154121E-3	-2.626739804E-1	1.319232268E-2
1.95	8.169448460E-3	-2.634121720E-1	2.745507193E-3
1.96	1.097601797E-2	-2.317076029E-1	1.353278397E-3
1.97	1.015962754E-2	-1.641904838E-1	-1.305852756E-3
1.98	1.012239460E-2	-9.736460547E-2	-5.243548125E-4
1.99	7.475512950E-3	-3.632863797E-2	1.140473318E-3
2.0	-4.433979853E-2	-7.233053662E-2	-1.320044565E-3
2.0100000000000002	-5.586510151E-2	-1.274808768E-1	3.115761709E-3
2.02	1.693269423E-2	-7.991039310E-2	1.270694621E-2
2.0300000000000002	-3.214557407E-2	-7.523254100E-2	-3.621949093E-4
2.04	-2.589058657E-2	2.034669749E-2	-2.244669349E-2
2.05	1.641419130E-1	-9.287816962E-2	9.665791220E-4
2.06	-1.349038264E-1	4.025459491E-2	-3.218777375E-2
2.07	1.583207587E-1	-1.245909850E-1	3.720958037E-2
2.08	5.977062375E-2	4.087038539E-2	-2.422945695E-2
2.09	-7.959837720E-2	-9.120777209E-2	-5.420097679E-3
2.1	3.887866973E-4	2.973230761E-2	-2.495797033E-2
2.11	-1.345942773E-2	-1.341568388E-2	-4.238873372E-3
2.12	-7.040059525E-2	8.286953657E-4	-1.294931106E-2
2.13	-3.576509535E-2	-3.221081625E-3	-8.237494682E-3
2.14	-2.020130443E-3	-1.653128111E-2	-2.581381164E-3
2.15	-2.344533206E-2	4.886219123E-3	-6.006302048E-3
2.16	-1.689342387E-2	3.383981063E-2	-2.087653336E-3
2.17	8.810433838E-2	-4.560365869E-3	1.025649611E-2
2.18	-1.633242874E-2	5.336141191E-2	-2.217127847E-3
2.19	2.004518629E-2	-3.415619979E-2	-2.427109876E-3
2.2	7.204334324E-2	3.467222194E-2	-2.581100177E-3
2.21	-2.557576983E-2	1.496818684E-2	-1.270205545E-3
2.22	6.076649794E-5	9.506936677E-2	-5.238253641E-3
2.23	1.833571479E-2	9.399374782E-2	8.808286194E-3
2.24	-4.767876206E-2	1.389488655E-1	4.157070068E-3
2.25	-5.097906377E-2	1.401482978E-1	8.066345635E-3
2.2600000000000002	-1.239649181E-2	1.567443760E-1	1.191240194E-2
2.27	-2.770737528E-2	1.912356385E-1	7.537720633E-3
2.2800000000000002	-3.157736271E-2	2.227923616E-1	1.679451895E-3
2.29	4.011114330E-2	2.682603903E-1	3.995895465E-3
2.3000000000000003	2.360352298E-2	2.804119282E-1	9.528170927E-3
2.31	-7.931462219E-3	3.096168455E-1	4.714119864E-3
2.32	6.094665644E-2	2.886564764E-1	1.791304870E-2
2.33	-8.519438517E-4	2.847772780E-1	8.273801574E-3
2.34	-3.641509381E-2	2.532827828E-1	6.691620934E-3
2.35	2.757052721E-2	2.547003587E-1	3.907177878E-3
2.36	-3.198038710E-2	2.270269364E-1	2.381251944E-3
2.37	-5.794170697E-2	1.844470228E-1	-2.885926853E-3
2.38	3.691907833E-3	1.459727725E-1	1.122467947E-3
2.39	-2.377092495E-2	8.806258999E-2	5.106251669E-3
2.4	-2.301627307E-2	5.139663659E-2	6.086304617E-3
2.41	3.789968700E-2	2.187746964E-2	2.477181387E-3
2.42	2.390797229E-2	1.547499232E-2	2.236397696E-3
2.43	2.867728332E-3	1.271016709E-2	-2.136675882E-3
2.44	4.936657102E-2	8.768162055E-3	4.064038229E-3
2.45	2.795042406E-2	6.298921775E-3	1.456530421E-3
2.46	-8.592549451E-3	1.121560531E-2	-1.619531667E-3
2.47	1.500568856E-3	1.990129032E-2	-3.613706247E-3
2.48	-1.256800463E-2	3.873516071E-2	-5.820961221E-3
2.49	-4.100553601E-2	5.112829052E-2	-8.115145731E-3
2.5	-1.212706058E-2	5.214477502E-2	-8.113982248E-3
2.5100000000000002	2.032972056E-3	4.681678774E-2	-6.413695885E-3
2.52	-2.038404743E-2	2.442587241E-2	-5.546020483E-3
2.5300000000000002	1.335816265E-2	1.257685922E-2	-2.213198709E-3
2.54	3.594276399E-2	-1.104012162E-2	2.305825186E-3
2.5500000000000003	2.131686357E-3	-1.184578266E-2	-3.037819041E-3
2.56	1.925261981E-2	-2.982983574E-2	-1.950780021E-3
2.57	4.303706975E-2	-3.173042931E-2	-1.404025125E-3
2.58	-2.766816983E-2	-6.925649175E-2	1.266486565E-3
2.59	2.982491700E-3	-7.693676258E-2	-5.162980687E-4
2.6	5.861629742E-3	-9.832639732E-2	2.529862356E-3
2.61	-3.928305387E-2	-1.083343545E-1	-2.289490679E-5
2.62	-1.258650498E-2	-1.286410634E-1	2.070234948E-3
2.63	-7.953126545E-4	-1.519939190E-1	2.099824466E-3
2.64	-1.415550418E-2	-1.830168141E-1	2.422477553E-3
2.65	9.110341288E-3	-2.175500044E-1	5.092737109E-3
2.66	3.823621721E-2	-2.450311963E-1	7.238648367E-3
2.67	1.605997146E-2	-2.633477894E-1	7.545082998E-3
2.68	2.084313383E-2	-2.740920439E-1	9.072289895E-3
2.69	3.870704269E-2	-2.770552814E-1	9.443948361E-3
2.7	6.306435389E-3	-2.801249336E-1	7.406195497E-3
2.71	-2.794463313E-3	-2.697271311E-1	4.937810503E-3
2.72	2.471376599E-2	-2.581405083E-1	7.546399069E-3
2.73	-2.572727709E-2	-2.253533522E-1	2.535794211E-3
2.74	-2.784662454E-2	-1.900953809E-1	4.909871054E-3
2.75	1.877337044E-2	-1.464401618E-1	4.594850908E-3
2.7600000000000002	-1.349583832E-2	-1.126058428E-1	3.369307154E-3
2.77	-4.787559841E-3	-8.570987810E-2	1.778565006E-3
2.7800000000000002	2.277340983E-2	-5.943658000E-2	2.075538425E-3
2.79	9.816084812E-3	-3.935548283E-2	2.568333578E-3
2.8000000000000003	9.043810973E-3	-1.490646998E-2	2.560131979E-3
2.81	2.833954636E-2	3.275262833E-3	1.861570669E-3
2.82	6.965885641E-3	1.286179292E-2	-4.690786147E-4
2.83	-1.215897223E-2	1.191295312E-2	-1.886911790E-3
2.84	-7.690553823E-4	-9.633770532E-4	-2.171654225E-3
2.85	-1.116669922E-2	-1.103878148E-2	-4.592787790E-3
2.86	-2.745167672E-2	-2.671237536E-2	-5.493971872E-3
2.87	3.281313580E-3	-2.835459063E-2	-6.211790911E-3
2.88	7.443522630E-4	-3.687980702E-2	-5.776466451E-3
2.89	-1.670209377E-2	-4.130915202E-2	-6.044985819E-3
2.9	3.002279523E-2	-4.548677225E-2	-2.464326691E-3
2.91	1.456071185E-2	-4.454261389E-2	-2.142020523E-3
2.92	6.514576236E-3	-3.132054366E-2	-1.018702554E-3
2.93	2.670938053E-2	-8.922690304E-3	8.643083098E-4
2.94	1.000679498E-2	2.426885624E-2	2.879797003E-4
2.95	-6.518880405E-3	5.873222172E-2	1.105438054E-3
2.96	1.656453596E-3	9.013328634E-2	1.759159994E-3
2.97	-8.159006741E-3	1.184337100E-1	1.238758993E-3
2.98	-2.572857571E-2	1.423002592E-1	1.544978138E-3
2.99	-9.945163998E-3	1.673972251E-1	2.181960440E-3
3.0	-6.907226234E-3	1.905734837E-1	3.020911163E-3
3.0100000000000002	-1.238355865E-2	2.099673416E-1	4.034452125E-3
3.02	4.550947855E-3	2.250279697E-1	5.423405600E-3
3.0300000000000002	1.337540091E-2	2.266171583E-1	8.629506064E-3
3.04	-6.849678756E-3	2.320499774E-1	7.294172698E-3
3.0500000000000003	2.881415751E-3	2.321504435E-1	9.078150394E-3
3.06	1.206184586E-2	2.416050514E-1	1.025950713E-2
3.0700000000000003	-1.841649326E-2	2.462300728E-1	8.769473147E-3
3.08	-5.830369049E-3	2.501449455E-1	7.869496507E-3
3.09	-7.475990047E-3	2.454106649E-1	4.866192770E-3
3.1	-2.862655847E-2	2.296213945E-1	4.387581778E-3
3.11	-1.339071413E-2	2.118650636E-1	4.341531213E-3
3.12	-4.806578065E-3	1.885397089E-1	4.627346380E-3
3.13	-9.786317728E-3	1.618601173E-1	3.835092290E-3
3.14	2.617831506E-3	1.301132733E-1	3.749009431E-3
3.15	1.501973853E-2	9.270216785E-2	4.008744192E-3
3.16	4.442155371E-3	5.340929709E-2	2.832882834E-3
3.17	8.278761810E-3	1.972640245E-2	2.384757031E-3
3.18	1.425838502E-2	-4.533592008E-3	2.341845657E-3
3.19	-3.269096392E-3	-1.662448845E-2	2.821316116E-4
3.2	-9.997730825E-3	-1.956776665E-2	-5.757574392E-4
3.21	7.198743308E-3	-7.941641883E-3	-3.235175180E-3
3.22	-1.746153443E-2	-7.283911496E-4	-4.178454447E-3
3.23	-1.301598011E-2	1.388485931E-2	-6.257655191E-3
3.24	7.808392499E-3	2.622925791E-2	-5.960533917E-3
3.25	-9.160867917E-3	4.308231627E-2	-6.390917140E-3
3.2600000000000002	4.319629169E-4	5.668839477E-2	-5.410086679E-3
3.27	1.586096556E-2	6.403207980E-2	-4.162985849E-3
3.2800000000000002	4.149045148E-3	5.826489095E-2	-2.204612925E-3
3.29	6.706202045E-3	4.181209886E-2	-1.347760595E-3
3.3000000000000003	1.148718411E-2	1.994662811E-2	-6.678007185E-6
3.31	-2.633858381E-4	-8.860515805E-3	4.059630743E-4
3.3200000000000003	-6.257436415E-3	-3.895996012E-2	4.102034589E-5
3.33	2.359008426E-3	-6.626803197E-2	4.125909331E-4
3.34	-6.315541923E-3	-9.514024161E-2	1.012083173E-3
3.35	-8.466086259E-3	-1.265539131E-1	1.411358738E-3
3.36	5.446661965E-3	-1.590825133E-1	2.541304153E-3
3.37	5.025629988E-3	-1.894880382E-1	4.306224082E-3
3.38	9.268926180E-4	-2.119573037E-1	2.503273916E-3
3.39	2.373597265E-2	-2.292233387E-1	4.723236990E-3
3.4	1.704274283E-2	-2.376059214E-1	5.699990225E-3
3.41	7.995166479E-3	-2.473705568E-1	5.948784545E-3
3.42	2.240280488E-2	-2.513345766E-1	8.063977236E-3
3.43	1.441624384E-2	-2.537854084E-1	8.631631389E-3
3.44	6.359299101E-3	-2.468433373E-1	7.235264943E-3
3.45	9.527439559E-3	-2.335051266E-1	7.084172201E-3
3.46	3.781930367E-3	-2.155530373E-1	6.158707571E-3
3.47	-4.324865355E-3	-1.973595521E-1	5.635547612E-3
3.48	2.244289515E-3	-1.792203317E-1	5.443561373E-3
3.49	5.726787933E-3	-1.605894271E-1	4.573529196E-3
3.5	2.909921206E-4	-1.422814504E-1	3.962548208E-3
3.5100000000000002	7.743781642E-3	-1.226154669E-1	3.862120887E-3
3.52	1.102525232E-2	-1.003113100E-1	3.649618553E-3
3.5300000000000002	1.347158159E-3	-7.887689229E-2	3.523978459E-3
3.54	7.519893750E-3	-6.008927943E-2	2.719395013E-3
3.5500000000000003	9.241476162E-3	-4.365642764E-2	1.753399801E-3
3.56	-8.729401817E-3	-3.075551190E-2	6.242494108E-4
3.5700000000000003	-9.329235457E-4	-1.534164049E-2	-6.101866243E-4
3.58	2.004417491E-3	-3.126844610E-3	-1.942145309E-3
3.59	-1.022321526E-2	7.067437850E-3	-4.529344567E-3
3.6	-1.020101640E-3	8.624457926E-3	-5.447314675E-3
3.61	2.048193338E-3	3.103695176E-3	-4.999565209E-3
3.62	-2.943418824E-4	-7.774430664E-3	-5.617892313E-3
3.63	7.566875676E-3	-2.020129480E-2	-5.329634714E-3
3.64	1.209265114E-2	-3.094255189E-2	-4.263025128E-3
3.65	5.277900929E-3	-3.838829811E-2	-3.552145854E-3
3.66	6.977238005E-3	-4.104421436E-2	-1.470981942E-3
3.67	8.398211301E-3	-3.797880377E-2	6.561423250E-5
3.68	-2.530526509E-3	-2.727300249E-2	-4.227896211E-4
3.69	-3.773595234E-3	-6.752393620E-3	1.118290854E-3
3.7	1.706286139E-3	2.321497101E-2	1.644239618E-3
3.71	-8.022667950E-3	6.320398127E-2	1.085230927E-3
3.72	-9.431382110E-3	1.090553244E-1	1.546547842E-3
3.73	1.371976609E-3	1.534418184E-1	1.668542785E-3
3.74	-6.623608713E-3	1.960559967E-1	2.365338929E-3
3.75	-3.768615117E-3	2.274476513E-1	3.492157889E-3
3.7600000000000002	3.259036849E-3	2.500732549E-1	4.933884573E-3
3.77	-4.717078468E-3	2.654250745E-1	6.020466265E-3
3.7800000000000002	-4.082555648E-3	2.723869471E-1	6.951729982E-3
3.79	-1.581523736E-3	2.703616562E-1	7.420098818E-3
3.8000000000000003	-6.753668007E-3	2.595974117E-1	8.095034804E-3
3.81	-1.058423786E-2	2.425460609E-1	8.692925406E-3
3.8200000000000003	-8.049640348E-3	2.219986423E-1	8.050492239E-3
3.83	-1.133630654E-2	2.037458306E-1	7.141895568E-3
3.84	-1.108989836E-2	1.862676128E-1	6.482692325E-3
3.85	-2.847585723E-3	1.715221212E-1	5.086721809E-3
3.86	-2.545902947E-3	1.587673877E-1	4.864424825E-3
3.87	-4.415050735E-3	1.407718023E-1	3.749154043E-3
3.88	6.720860461E-3	1.223939141E-1	3.758786154E-3
3.89	3.453254113E-3	1.046088179E-1	3.998158407E-3
3.9	-7.046885410E-4	8.925301493E-2	3.843078652E-3
3.91	5.329429826E-3	7.333802893E-2	3.981867808E-3
3.92	8.544915266E-4	5.695309840E-2	2.493431998E-3
3.93	-3.625155827E-3	4.322647177E-2	1.037056875E-3
3.94	-1.926284523E-4	2.921218347E-2	3.622854881E-4
3.95	-3.721071825E-3	1.961132910E-2	-1.142034663E-3
3.96	-5.653017474E-3	1.405796325E-2	-3.319137763E-3
3.97	-5.841215510E-5	1.452025004E-2	-4.429494672E-3
3.98	1.458240025E-3	1.877525076E-2	-5.452095573E-3
3.99	1.530869401E-4	2.335057519E-2	-5.529772806E-3
4.0	4.493094989E-3	2.689540602E-2	-3.998172047E-3
4.01	5.379347459E-3	2.903562752E-2	-3.615888392E-3
4.0200000000000005	-2.339086379E-4	2.935556845E-2	-3.195024849E-3
4.03	2.061231326E-3	2.627271954E-2	-2.570218520E-3
4.04	2.374906252E-3	2.252313696E-2	-1.313139963E-3
4.05	-5.177364340E-3	1.184978686E-2	-5.518217562E-4
4.0600000000000005	-2.137685409E-3	-5.378888400E-3	-1.601477144E-4
4.07	1.242079887E-4	-2.642368098E-2	2.495480433E-4
4.08	-3.277205541E-3	-5.406715972E-2	3.071862250E-4
4.09	2.676867501E-3	-8.355380065E-2	2.527950047E-4
4.1	5.381581842E-3	-1.148103554E-1	1.297400586E-3
4.11	5.295832092E-3	-1.485795466E-1	2.382023764E-3
4.12	1.009764285E-2	-1.814507810E-1	2.862790060E-3
4.13	1.273647574E-2	-2.125755950E-1	4.259482075E-3
4.14	1.011703053E-2	-2.417627516E-1	5.763890360E-3
4.15	1.047233418E-2	-2.652259552E-1	6.459896770E-3
4.16	1.193336139E-2	-2.783974803E-1	7.265066134E-3
4.17	6.704579974E-3	-2.826919953E-1	8.317559195E-3
4.18	6.441792315E-3	-2.745892493E-1	7.333233786E-3
4.19	8.092461220E-3	-2.590804198E-1	6.538497823E-3
4.2	4.895699816E-3	-2.370348988E-1	6.416282710E-3
4.21	4.335278431E-3	-2.076228539E-1	6.666253042E-3
4.22	8.916772620E-3	-1.777518505E-1	4.509344772E-3
4.23	5.225428008E-3	-1.431654420E-1	4.657910950E-3
4.24	6.584870080E-3	-1.118377415E-1	5.301754904E-3
4.25	8.465946401E-3	-8.703572430E-2	3.861821127E-3
4.26	4.966826255E-3	-6.958454619E-2	3.255660228E-3
4.2700000000000005	4.291983489E-3	-5.974435503E-2	3.337594515E-3
4.28	3.913068105E-3	-5.493387292E-2	3.147935408E-3
4.29	-9.529917613E-4	-5.286672945E-2	2.232625140E-3
4.3	-2.023097164E-3	-5.182048615E-2	2.005086327E-3
4.3100000000000005	5.559460291E-5	-5.172029056E-2	1.234848929E-3
4.32	-1.176325239E-3	-5.249000189E-2	-1.261544492E-3
4.33	-4.603604349E-4	-5.211804016E-2	-2.870589301E-3
4.34	3.350917284E-3	-4.878133939E-2	-3.773418958E-3
4.3500000000000005	2.449956925E-3	-4.223394246E-2	-4.828853795E-3
4.36	3.594990978E-3	-3.283176221E-2	-5.084445047E-3
4.37	9.358313280E-3	-2.353747137E-2	-5.169703531E-3
4.38	6.781194518E-3	-1.548050441E-2	-4.040553140E-3
4.39	3.020831409E-3	-1.054331255E-2	-2.642368630E-3
4.4	7.100929806E-3	-5.970273772E-3	-1.156598643E-3
4.41	2.150104594E-3	-2.119393757E-3	-8.200479315E-4
4.42	1.279369922E-4	4.086411383E-3	-7.392393615E-4
4.43	-4.305243396E-4	1.373009674E-2	-6.317810992E-5
4.44	-2.091142228E-3	2.764443003E-2	1.318943930E-3
4.45	-2.597955767E-3	4.517634904E-2	1.220617393E-3
4.46	-4.713823794E-4	6.945121886E-2	5.916708207E-4
4.47	-1.010240232E-4	9.901885947E-2	7.560662943E-4
4.48	-1.634628424E-3	1.317938300E-1	1.938238516E-3
4.49	-3.450988137E-4	1.679703172E-1	3.773930502E-3
4.5	-2.248010626E-3	2.048301109E-1	4.782383871E-3
4.51	-5.565232239E-3	2.343943065E-1	5.371854557E-3
4.5200000000000005	-5.393012596E-3	2.560387783E-1	5.894899504E-3
4.53	-5.159168532E-3	2.723264774E-1	6.683514548E-3
4.54	-9.652076470E-3	2.782500465E-1	7.137718821E-3
4.55	-9.156552159E-3	2.752994980E-1	8.400552026E-3
4.5600000000000005	-8.320280900E-3	2.642660698E-1	8.464215231E-3
4.57	-7.586121550E-3	2.467711624E-1	7.419941855E-3
4.58	-4.378232578E-3	2.250702175E-1	6.305159636E-3
4.59	-3.851388531E-3	1.953739268E-1	4.961940579E-3
4.6000000000000005	-2.914516923E-3	1.655923140E-1	4.775719322E-3
4.61	2.904190333E-4	1.368864478E-1	4.636032995E-3
4.62	1.819563801E-3	1.094540136E-1	4.471476378E-3
4.63	7.255882121E-4	8.578656755E-2	4.857209158E-3
4.64	9.614604015E-4	6.658685301E-2	5.221228953E-3
4.65	1.591495039E-3	5.031033385E-2	4.506640933E-3
4.66	-1.679460126E-3	3.918275603E-2	2.743512521E-3
4.67	-1.467413100E-3	3.465011455E-2	1.242335280E-3
4.68	4.202799595E-4	3.286321662E-2	1.319627287E-4
4.69	-2.043833425E-3	3.737006090E-2	-1.607062387E-3
4.7	-2.025349966E-5	4.457181893E-2	-2.476717996E-3
4.71	2.235018345E-3	5.129412299E-2	-2.936436391E-3
4.72	7.018969463E-4	5.757793480E-2	-3.247128326E-3
4.73	2.960445766E-3	6.143094880E-2	-5.690536943E-3
4.74	2.528613414E-3	6.165893644E-2	-4.757203000E-3
4.75	-1.173664564E-4	5.814458324E-2	-4.026018103E-3
4.76	-7.910061503E-4	4.984952409E-2	-3.672957773E-3
4.7700000000000005	3.920229682E-4	3.545577260E-2	-2.600191384E-3
4.78	-1.886416316E-3	1.666524803E-2	-1.790016179E-3
4.79	-1.838433262E-3	-5.694711854E-3	-1.037834910E-3
4.8	-2.845732771E-4	-2.937836744E-2	2.572340986E-5
4.8100000000000005	-5.570225163E-4	-5.128118462E-2	-8.402493637E-5
4.82	2.447835930E-4	-7.393540230E-2	6.576538267E-4
4.83	3.081674138E-3	-9.597988285E-2	-6.681700228E-4
4.84	5.602672557E-3	-1.161557332E-1	2.682237150E-4
4.8500000000000005	7.434863209E-3	-1.348446964E-1	1.649606173E-3
4.86	8.453076653E-3	-1.547700399E-1	2.442768947E-3
4.87	8.426328233E-3	-1.742228595E-1	3.389654060E-3
4.88	8.663223051E-3	-1.936647603E-1	4.963950927E-3
4.89	9.455581446E-3	-2.122571273E-1	6.462546712E-3
4.9	9.278553309E-3	-2.293415191E-1	7.018202084E-3
4.91	7.742705951E-3	-2.465022007E-1	6.803219748E-3
4.92	7.844028632E-3	-2.590985648E-1	6.669342947E-3
4.93	7.752123257E-3	-2.619348746E-1	7.487317939E-3
4.94	6.698822894E-3	-2.568883715E-1	7.289567368E-3
4.95	8.530877317E-3	-2.445050637E-1	7.120297384E-3
4.96	7.825066494E-3	-2.211529652E-1	5.506489706E-3
4.97	6.137633110E-3	-1.926600496E-1	4.933808279E-3
4.98	7.187697073E-3	-1.615885617E-1	4.944264989E-3
4.99	5.942333455E-3	-1.249923406E-1	4.042824575E-3
5.0	4.186026719E-3	-9.197491414E-2	4.639818916E-3
5.01	3.604374854E-3	-6.251931809E-2	4.715585742E-3
5.0200000000000005	1.640186135E-3	-3.967824618E-2	4.607377883E-3
5.03	1.140131153E-4	-2.456410684E-2	3.624699545E-3
5.04	8.753690220E-4	-1.895439513E-2	1.831276846E-3
5.05	5.141320921E-4	-2.212240257E-2	3.288774016E-4
5.0600000000000005	3.023688451E-4	-2.941971370E-2	-1.501529111E-3
5.07	1.607625890E-3	-3.975208924E-2	-2.540224655E-3
5.08	2.517689022E-3	-5.125200216E-2	-3.800058961E-3
5.09	2.644362601E-3	-6.090988537E-2	-5.711208542E-3
5.1000000000000005	4.146615202E-3	-6.807441510E-2	-5.968405771E-3
5.11	6.327254111E-3	-7.093979515E-2	-4.853655863E-3
5.12	3.736727843E-3	-6.944581069E-2	-4.490687418E-3
5.13	4.501098727E-3	-5.965656437E-2	-2.485165922E-3
5.14	4.409390058E-3	-4.382657794E-2	-2.826732251E-3
5.15	1.640200480E-3	-2.582576981E-2	-1.425894559E-3
5.16	2.241221709E-3	-4.389100717E-3	-1.034380960E-3
5.17	1.818104588E-3	1.901128924E-2	-9.971109712E-4
5.18	-3.370263056E-5	4.291782977E-2	-5.033117193E-4
5.19	-8.010847404E-4	6.767788437E-2	-9.325718299E-5
5.2	-3.086976768E-4	9.389749608E-2	2.069514068E-5
5.21	-1.647009721E-3	1.194154537E-1	1.460379993E-3
5.22	-2.639510324E-3	1.457775911E-1	2.506134939E-3
5.23	-1.982984559E-3	1.687484499E-1	1.469319232E-3
5.24	-5.221835927E-3	1.906672365E-1	3.582124913E-3
5.25	-4.760772576E-3	2.080506071E-1	4.930375052E-3
5.26	-5.823415806E-3	2.227841314E-1	6.758797598E-3
5.2700000000000005	-8.439234080E-3	2.333712267E-1	6.738462621E-3
5.28	-7.842324885E-3	2.396342148E-1	6.676541482E-3
5.29	-6.901280605E-3	2.408572267E-1	7.782895252E-3
5.3	-6.941952372E-3	2.367819540E-1	7.802526073E-3
5.3100000000000005	-6.212042262E-3	2.294980558E-1	7.261383963E-3
5.32	-4.311429253E-3	2.189656719E-1	7.780049277E-3
5.33	-3.393946893E-3	2.061174544E-1	7.348982415E-3
5.34	-2.553921167E-3	1.905218636E-1	5.853103060E-3
5.3500000000000005	-1.556092330E-3	1.717655678E-1	5.185634365E-3
5.36	-3.621274086E-4	1.511413193E-1	5.144176426E-3
5.37	-2.242392205E-4	1.284962495E-1	4.820893240E-3
5.38	-3.496958219E-4	1.027346333E-1	5.056355429E-3
5.39	-1.300673028E-3	7.996578418E-2	4.499028158E-3
5.4	-1.062210491E-3	5.752924286E-2	2.873871756E-3
5.41	-4.569558703E-4	4.090294443E-2	3.231118155E-3
5.42	-4.061987900E-4	2.697635196E-2	1.398060751E-3
5.43	-5.575126313E-4	1.869050018E-2	-1.418371675E-4
5.44	7.774950660E-4	1.830359600E-2	-1.718165445E-3
5.45	1.516323258E-3	2.260791260E-2	-3.617800983E-3
5.46	-1.273931965E-3	3.379005283E-2	-4.909934355E-3
5.47	5.605306713E-4	4.705439700E-2	-4.978357966E-3
5.48	4.198744844E-4	6.001211820E-2	-4.601842953E-3
5.49	1.942143045E-4	7.096931469E-2	-4.849446924E-3
5.5	1.825546826E-4	7.618914192E-2	-3.801079530E-3
5.51	-1.669150889E-4	7.408696560E-2	-2.366382317E-3
5.5200000000000005	-8.755541870E-4	6.419566510E-2	-2.218810601E-3
5.53	-1.841621239E-3	4.544297712E-2	-1.372671045E-3
5.54	-7.691597842E-4	1.841373049E-2	-1.118685770E-3
5.55	-1.315536867E-4	-1.473895898E-2	-2.169726370E-3
5.5600000000000005	1.979631552E-3	-5.322606359E-2	-1.101974710E-3
5.57	2.823099802E-3	-9.323517360E-2	-1.575727938E-4
5.58	3.001037697E-3	-1.298256592E-1	1.149873259E-4
5.59	5.472979243E-3	-1.593234565E-1	9.846417156E-4
5.6000000000000005	6.591050435E-3	-1.833393158E-1	2.339347528E-3
5.61	7.392884974E-3	-2.018022260E-1	2.132696958E-3
5.62	8.389454013E-3	-2.137595025E-1	2.852996447E-3
5.63	8.700003522E-3	-2.215017525E-1	4.198124838E-3
5.64	9.213128826E-3	-2.247377507E-1	5.450776053E-3
5.65	1.032921229E-2	-2.245711294E-1	6.698999393E-3
5.66	9.526139253E-3	-2.224768699E-1	6.141397880E-3
5.67	8.701750242E-3	-2.185984346E-1	6.597428562E-3
5.68	7.627003002E-3	-2.136573851E-1	6.786507296E-3
5.69	7.985179589E-3	-2.061156006E-1	6.610647353E-3
5.7	7.356154975E-3	-1.970929425E-1	6.039642915E-3
5.71	6.378968442E-3	-1.850857440E-1	5.702889395E-3
5.72	5.256949896E-3	-1.692512599E-1	4.278939200E-3
5.73	4.585998813E-3	-1.512279049E-1	4.989617300E-3
5.74	3.481417893E-3	-1.314112471E-1	4.857002337E-3
5.75	2.365312486E-3	-1.090560295E-1	5.094176920E-3
5.76	1.803744743E-3	-8.719967641E-2	4.975579214E-3
5.7700000000000005	1.026682863E-3	-6.815907158E-2	3.599789572E-3
5.78	4.432449000E-4	-5.264898753E-2	2.546384851E-3
5.79	1.056172298E-4	-4.079901533E-2	1.961582228E-3
5.8	1.692047778E-3	-3.378752002E-2	1.747472852E-4
5.8100000000000005	3.672985455E-3	-3.092566074E-2	-1.840731969E-3
5.82	3.740367005E-3	-3.184267081E-2	-2.974822092E-3
5.83	3.732705573E-3	-3.766517855E-2	-4.029490518E-3
5.84	4.652071081E-3	-4.426528315E-2	-3.812000420E-3
5.8500000000000005	3.459808220E-3	-4.916675202E-2	-4.723654033E-3
5.86	3.474322865E-3	-5.439681210E-2	-4.372908640E-3
5.87	3.449726636E-3	-5.724523504E-2	-5.024710191E-3
5.88	3.430309259E-3	-5.477170574E-2	-2.853777917E-3
5.89	3.816406289E-3	-4.906387366E-2	-1.438796091E-3
5.9	2.195436666E-3	-3.839856900E-2	-2.341448831E-3
5.91	1.585702113E-3	-2.249229970E-2	-1.607848089E-3
5.92	1.437541454E-3	6.901136818E-4	-1.798217555E-3
5.93	1.540967211E-3	2.736796685E-2	-1.694055930E-3
5.94	7.668460472E-5	5.928949801E-2	-1.166794693E-3
5.95	-1.304120412E-3	9.480868541E-2	-4.372091768E-4
5.96	-9.024689995E-4	1.304539474E-1	1.992539885E-4
5.97	-2.089599013E-3	1.641528181E-1	8.891456137E-4
5.98	-3.933837157E-3	1.963483705E-1	2.691394411E-3
5.99	-3.987241334E-3	2.247275008E-1	4.338364764E-3
6.0	-5.598973116E-3	2.423912619E-1	4.987896882E-3
6.01	-7.279210018E-3	2.553332923E-1	5.459590572E-3
6.0200000000000005	-7.156908887E-3	2.573930464E-1	6.542582932E-3
6.03	-6.890696763E-3	2.521087643E-1	7.124974740E-3
6.04	-6.394005088E-3	2.385971417E-1	7.020969884E-3
6.05	-5.865428168E-3	2.205055805E-1	6.928877472E-3
6.0600000000000005	-4.691784120E-3	2.013651414E-1	6.138538950E-3
6.07	-4.640170472E-3	1.788704823E-1	6.566245829E-3
6.08	-3.546625664E-3	1.582236179E-1	6.711094809E-3
6.09	-2.250691941E-3	1.410459002E-1	5.116169882E-3
6.1000000000000005	-1.570896615E-3	1.276330907E-1	5.026385665E-3
6.11	-5.839960835E-4	1.168371815E-1	5.644880346E-3
6.12	5.092413080E-4	1.080878046E-1	4.752980663E-3
6.13	4.055660082E-4	1.011404700E-1	3.646837351E-3
6.140000000000001	-7.411953711E-4	9.350815140E-2	4.201424551E-3
6.15	-3.537182414E-4	8.532343469E-2	4.063141775E-3
6.16	-5.315123243E-4	7.673605671E-2	2.883903509E-3
6.17	3.162158051E-4	6.859191546E-2	3.047282887E-4
6.18	-2.893617653E-4	5.903088651E-2	-2.939345407E-3
6.19	4.523050764E-4	5.040238793E-2	-3.287337159E-3
6.2	7.330348976E-4	4.493047333E-2	-3.978199120E-3
6.21	1.165737966E-3	3.905711256E-2	-4.056651163E-3
6.22	6.651253471E-5	3.885484896E-2	-3.870684671E-3
6.23	-8.205412301E-5	4.052322675E-2	-4.109537811E-3
6.24	-6.831322307E-4	4.331104846E-2	-3.596129730E-3
6.25	-6.220431315E-4	4.619282812E-2	-3.849112186E-3
6.26	5.287773760E-4	4.662722310E-2	-3.805572261E-3
6.2700000000000005	9.341707922E-4	4.242489181E-2	-2.615553903E-3
6.28	-6.331694030E-4	3.193062566E-2	-1.828372049E-3
6.29	-1.398532751E-3	1.531077624E-2	-2.498303868E-3
6.3	1.059120701E-4	-9.342029537E-3	-1.996898100E-3
6.3100000000000005	1.784472522E-3	-3.927566555E-2	-7.616505827E-4
6.32	2.354019503E-3	-7.315974286E-2	-1.463386063E-3
6.33	4.508618424E-3	-1.110781113E-1	3.130654814E-4
6.34	5.799571956E-3	-1.506801168E-1	-1.486082552E-4
6.3500000000000005	7.065625647E-3	-1.834069411E-1	2.052185965E-3
6.36	7.503625284E-3	-2.104096503E-1	2.281103116E-3
6.37	8.420122919E-3	-2.321966204E-1	3.723838714E-3
6.38	9.016319203E-3	-2.457437104E-1	5.007582644E-3
6.390000000000001	9.151018725E-3	-2.503087841E-1	5.713644373E-3
6.4	8.197194069E-3	-2.487707275E-1	6.315283319E-3
6.41	7.521481524E-3	-2.417302672E-1	5.858986807E-3
6.42	7.470916072E-3	-2.288508097E-1	5.270569754E-3
6.43	6.422638828E-3	-2.112323491E-1	5.983097983E-3
6.44	6.580082483E-3	-1.915748968E-1	5.122886665E-3
6.45	6.800577469E-3	-1.709001331E-1	4.846715886E-3
6.46	5.793825621E-3	-1.488509480E-1	5.252182913E-3
6.47	5.566663826E-3	-1.263714949E-1	4.035675955E-3
6.48	4.388048471E-3	-1.079990556E-1	5.419304376E-3
6.49	3.635112095E-3	-9.369789201E-2	5.032547164E-3
6.5	2.481208155E-3	-8.011150159E-2	5.211613608E-3
6.51	1.479390189E-3	-7.279132222E-2	3.131293668E-3
6.5200000000000005	5.192980207E-4	-6.633766366E-2	3.186111890E-3
6.53	1.245614053E-4	-6.414926039E-2	1.347411154E-3
6.54	2.404954670E-4	-6.591091354E-2	4.141591480E-4
6.55	4.057090828E-4	-6.865457497E-2	-9.934735611E-4
6.5600000000000005	2.141463780E-3	-7.065658492E-2	-2.389805623E-3
6.57	4.769091788E-3	-7.122705670E-2	-3.184226535E-3
6.58	5.097834415E-3	-7.101314110E-2	-4.088950748E-3
6.59	5.772455255E-3	-6.778732528E-2	-3.914625871E-3
6.6000000000000005	6.311931247E-3	-6.196632780E-2	-4.676558542E-3
6.61	4.407625958E-3	-5.413530639E-2	-4.012416189E-3
6.62	4.992575714E-3	-4.336677249E-2	-3.079570131E-3
6.63	3.929029564E-3	-3.076393820E-2	-2.713038492E-3
6.640000000000001	1.839562217E-3	-1.792699553E-2	-2.648303079E-3
6.65	1.739496710E-3	-3.614197457E-3	-2.435924076E-3
6.66	1.007494381E-3	1.235631024E-2	-1.769266630E-3
6.67	-7.098423838E-4	2.982086251E-2	-2.091555934E-3
6.68	-1.232728719E-3	4.862683434E-2	-1.928956641E-3
6.69	-9.787005090E-4	6.923343740E-2	-1.132704782E-3
6.7	-1.162958434E-3	9.271155797E-2	-3.906922320E-5
6.71	-1.121698559E-3	1.189379558E-1	9.797267164E-4
6.72	-1.339438898E-3	1.478647636E-1	1.190382522E-3
6.73	-2.303176224E-3	1.771103948E-1	2.287928249E-3
6.74	-4.114152174E-3	2.050524784E-1	2.613985402E-3
6.75	-5.373688629E-3	2.306520542E-1	3.872750235E-3
6.76	-5.999054601E-3	2.495815595E-1	5.401204062E-3
6.7700000000000005	-7.892388692E-3	2.602932294E-1	6.156800223E-3
6.78	-7.823330840E-3	2.624046840E-1	5.863541337E-3
6.79	-7.604262136E-3	2.544021751E-1	5.851118258E-3
6.8	-6.657208401E-3	2.385273076E-1	5.471763630E-3
6.8100000000000005	-5.029788807E-3	2.149079661E-1	6.254991319E-3
6.82	-3.572290530E-3	1.865682777E-1	5.714695883E-3
6.83	-1.859191348E-3	1.570351370E-1	4.950859976E-3
6.84	-7.542715645E-4	1.301733714E-1	5.271856027E-3
6.8500000000000005	-2.451284782E-4	1.056709524E-1	5.289794479E-3
6.86	7.332789801E-5	8.541550000E-2	5.411339837E-3
6.87	3.379374036E-4	7.226555382E-2	5.765723228E-3
6.88	6.054948367E-4	6.378002606E-2	4.814904165E-3
6.890000000000001	-5.578196865E-4	6.271832479E-2	3.370504492E-3
6.9	-1.091675408E-3	6.578791616E-2	3.040233686E-3
6.91	-7.787367605E-4	7.136964403E-2	3.389100554E-4
6.92	-1.112332844E-4	7.693568073E-2	-1.205851602E-3
6.93	-5.804508869E-4	8.159095947E-2	-8.161272175E-4
6.94	6.752682100E-4	8.422241787E-2	-2.941678924E-3
6.95	3.507520355E-4	8.327494942E-2	-4.082533884E-3
6.96	1.429352261E-4	8.159766875E-2	-4.334208536E-3
6.97	-9.398626311E-4	7.592635885E-2	-4.461761980E-3
6.98	-7.384922645E-4	6.705273325E-2	-3.821271749E-3
6.99	-3.686532511E-4	5.728644683E-2	-3.800841646E-3
7.0	-9.275961972E-4	4.447170591E-2	-3.021080621E-3
7.01	-1.122352322E-3	2.904839061E-2	-2.400672006E-3
7.0200000000000005	-4.454639458E-4	1.220527746E-2	-2.835433054E-3
7.03	-2.488556077E-4	-6.436841686E-3	-2.032343441E-3
7.04	4.855529276E-4	-2.740746912E-2	-1.254112542E-3
7.05	1.703740292E-3	-4.979131224E-2	-1.521035600E-3
7.0600000000000005	3.494031227E-3	-7.354817149E-2	-2.099509319E-3
7.07	4.262494082E-3	-9.969606795E-2	-2.630927133E-3
7.08	6.066764677E-3	-1.263128797E-1	4.911164763E-4
7.09	7.045514295E-3	-1.496343295E-1	1.000664664E-3
7.1000000000000005	7.821237200E-3	-1.712997010E-1	3.464114667E-3
7.11	8.303082718E-3	-1.913921260E-1	2.531569383E-3
7.12	8.067237641E-3	-2.068737612E-1	4.707663470E-3
7.13	8.451159066E-3	-2.192914356E-1	5.227792674E-3
7.140000000000001	8.578761081E-3	-2.281275574E-1	4.932682944E-3
7.15	7.952437932E-3	-2.318950764E-1	5.341809225E-3
7.16	7.995632420E-3	-2.307534617E-1	5.497971120E-3
7.17	7.258547330E-3	-2.243064733E-1	5.355669676E-3
7.18	6.049764543E-3	-2.131024019E-1	5.435052778E-3
7.19	5.302204259E-3	-1.984134118E-1	5.865798663E-3
7.2	4.965431923E-3	-1.801299492E-1	6.558316183E-3
7.21	5.460552806E-3	-1.574677769E-1	5.991890860E-3
7.22	4.299448726E-3	-1.335035751E-1	4.638239378E-3
7.23	3.829347503E-3	-1.107459885E-1	5.978931281E-3
7.24	3.654366890E-3	-8.659786977E-2	6.256363821E-3
7.25	1.586403943E-3	-6.799092672E-2	4.222486744E-3
7.26	1.844397973E-3	-5.314556565E-2	3.567440222E-3
7.2700000000000005	1.498053084E-3	-4.486885168E-2	2.520535422E-3
7.28	2.639800767E-3	-4.428275086E-2	1.804097128E-3
7.29	2.266322313E-3	-4.830552916E-2	7.425860884E-4
7.3	3.092053917E-3	-5.672839467E-2	-1.651806505E-3
7.3100000000000005	3.310159571E-3	-6.765914026E-2	-3.197949933E-3
7.32	4.156675119E-3	-8.005509436E-2	-3.424727822E-3
7.33	5.712614293E-3	-9.085648574E-2	-3.589293527E-3
7.34	5.850903401E-3	-9.633595146E-2	-3.926055002E-3
7.3500000000000005	4.785691332E-3	-9.499397126E-2	-3.731157692E-3
7.36	4.338608938E-3	-8.604226002E-2	-3.409552639E-3
7.37	3.917021995E-3	-7.079927138E-2	-3.211340871E-3
7.38	3.621537092E-3	-4.808219497E-2	-3.282039695E-3
7.390000000000001	3.492519418E-3	-2.218427010E-2	-2.434565592E-3
7.4	1.340997994E-3	7.495816973E-3	-1.093679250E-3
7.41	-1.597588432E-4	3.713792818E-2	-2.478147166E-3
7.42	-5.916057431E-4	6.665057562E-2	-7.350416658E-4
7.43	-1.163915982E-3	9.286784969E-2	-1.367651987E-3
7.44	-2.352227385E-3	1.153198004E-1	-9.210482041E-4
7.45	-3.244119849E-3	1.355538269E-1	1.545373641E-4
7.46	-3.310415910E-3	1.531619917E-1	9.643608153E-4
7.47	-3.565926184E-3	1.684343385E-1	1.910301567E-3
7.48	-4.888336053E-3	1.829222044E-1	3.760083151E-3
7.49	-5.983731141E-3	1.956626090E-1	5.436604452E-3
7.5	-5.935268235E-3	2.056383177E-1	5.061864265E-3
7.51	-6.611540622E-3	2.139075718E-1	4.564698866E-3
7.5200000000000005	-6.982171645E-3	2.204479112E-1	5.141048569E-3
7.53	-6.616423342E-3	2.241382678E-1	7.261152471E-3
7.54	-5.609277477E-3	2.219151338E-1	6.363652182E-3
7.55	-5.393799236E-3	2.157725652E-1	6.353066397E-3
7.5600000000000005	-3.722645929E-3	2.030200800E-1	6.562874747E-3
7.57	-4.169160961E-3	1.870392488E-1	5.563835080E-3
7.58	-3.136156183E-3	1.661895262E-1	5.694812077E-3
7.59	-1.895848161E-3	1.445737028E-1	6.753149105E-3
7.6000000000000005	-1.798386074E-3	1.219770148E-1	6.598298744E-3
7.61	-1.098218849E-3	1.016674050E-1	6.086686087E-3
7.62	-1.334957322E-3	8.435100518E-2	4.430439902E-3
7.63	-2.259730251E-3	7.003595721E-2	2.095410470E-3
7.640000000000001	-1.212205773E-3	6.124509945E-2	1.929186022E-3
7.65	1.946459952E-5	5.729030231E-2	1.695487548E-3
7.66	-3.386499196E-4	5.760277248E-2	1.273860587E-4
7.67	-5.615351998E-4	6.058443032E-2	-4.087324617E-4
7.68	-1.966583633E-4	6.608918510E-2	-2.606722879E-3
7.69	-5.225295359E-4	7.285658066E-2	-3.051717284E-3
7.7	-1.129524684E-3	7.920922751E-2	-3.198074929E-3
7.71	-2.468085875E-3	8.392483793E-2	-4.363371897E-3
7.72	-3.096231771E-3	8.689338939E-2	-4.195876137E-3
7.73	-7.776767874E-4	8.464991752E-2	-3.872057423E-3
7.74	-1.778881156E-4	7.677115045E-2	-3.069827127E-3
7.75	-1.274241199E-3	6.529257975E-2	-2.048232126E-3
7.76	-1.232462093E-3	4.854055417E-2	-2.154448305E-3
7.7700000000000005	-3.608229286E-4	2.438295609E-2	-2.746970078E-3
7.78	2.992617157E-4	-2.720612936E-3	-2.860076194E-3
7.79	6.284389011E-4	-3.468046008E-2	-2.611885924E-3
7.8	1.375853429E-3	-6.970687308E-2	-2.368094492E-3
7.8100000000000005	2.421640316E-3	-1.033890788E-1	-2.210433054E-3
7.82	3.491927047E-3	-1.343853531E-1	-1.603121941E-3
7.83	5.452903642E-3	-1.631347879E-1	1.684066865E-4
7.84	7.167035357E-3	-1.868269926E-1	1.870955512E-3
7.8500000000000005	8.405179500E-3	-2.025792348E-1	1.786801029E-3
7.86	8.102793778E-3	-2.142787377E-1	4.057572317E-3
7.87	8.948425921E-3	-2.161624829E-1	5.029652548E-3
7.88	8.392971168E-3	-2.143112818E-1	4.281685782E-3
7.890000000000001	7.455481688E-3	-2.091016503E-1	5.993006346E-3
7.9	6.704808859E-3	-2.016142885E-1	3.927679666E-3
7.91	6.021197748E-3	-1.926538877E-1	3.883171471E-3
7.92	6.829212685E-3	-1.827720567E-1	4.873236063E-3
7.930000000000001	6.235891143E-3	-1.733357803E-1	4.971535635E-3
7.94	4.767575274E-3	-1.650215737E-1	3.559143973E-3
7.95	4.083947418E-3	-1.570424851E-1	3.005525962E-3
7.96	2.761278251E-3	-1.467269170E-1	4.041580921E-3
7.97	2.010643034E-3	-1.355722311E-1	4.954718375E-3
7.98	2.674609708E-3	-1.242662364E-1	5.212866912E-3
7.99	2.098518918E-3	-1.103466252E-1	5.106041861E-3
8.0	3.748850621E-4	-9.456807412E-2	2.277024222E-3
8.01	4.872168487E-4	-8.082375588E-2	1.179561452E-3
8.02	1.556990680E-3	-6.818966781E-2	1.330402410E-3
8.03	3.051985959E-3	-5.884715714E-2	1.577160788E-3
8.040000000000001	1.841102251E-3	-5.384374534E-2	-2.253197802E-3
8.05	2.499916056E-3	-5.332325385E-2	-3.636019992E-3
8.06	2.935914556E-3	-5.646042742E-2	-2.752673197E-3
8.07	3.754731873E-3	-6.303930916E-2	-4.195029306E-3
8.08	2.757831287E-3	-7.042910717E-2	-4.768434391E-3
8.09	3.468968095E-3	-7.723668106E-2	-4.857201947E-3
8.1	4.409580759E-3	-8.142074415E-2	-3.772021279E-3
8.11	4.118230155E-3	-8.014408160E-2	-2.896884911E-3
8.120000000000001	3.151010434E-3	-7.243722357E-2	-2.694289255E-3
8.13	1.715447167E-3	-5.738325037E-2	-3.037516641E-3
8.14	8.351636369E-5	-3.684281494E-2	-4.362627768E-3
8.15	3.939545670E-4	-9.194064841E-3	-4.257985906E-3
8.16	1.799595780E-3	2.312111492E-2	-2.000421431E-3
8.17	3.603643007E-4	5.734351497E-2	-1.835338026E-3
8.18	-1.821650406E-3	9.462404452E-2	-3.408553171E-3
8.19	-1.473055621E-3	1.275663336E-1	-1.984431314E-3
8.2	-2.121404400E-3	1.575790962E-1	-8.888502596E-4
8.21	-3.587710604E-3	1.827777875E-1	1.829988385E-3
8.22	-3.950654974E-3	2.006313130E-1	2.810482656E-3
8.23	-4.485920126E-3	2.125327093E-1	3.977743679E-3
8.24	-5.582416089E-3	2.201844885E-1	4.508182118E-3
8.25	-6.813620778E-3	2.229315495E-1	4.544806209E-3
8.26	-7.639369359E-3	2.206617149E-1	4.692490530E-3
8.27	-6.883185496E-3	2.137120231E-1	5.574505758E-3
8.28	-5.941594233E-3	2.035922226E-1	6.050675345E-3
8.290000000000001	-6.495375798E-3	1.912386064E-1	4.666704554E-3
8.3	-6.130474724E-3	1.765506788E-1	3.373776179E-3
8.31	-5.448500012E-3	1.622232379E-1	3.957851115E-3
8.32	-4.885645684E-3	1.476122278E-1	4.318535069E-3
8.33	-2.754432549E-3	1.328211387E-1	5.061219168E-3
8.34	-1.782385846E-3	1.205953916E-1	5.949948263E-3
8.35	-3.034075191E-3	1.104286393E-1	4.545948935E-3
8.36	-2.915823409E-3	1.027612924E-1	3.892263291E-3
8.370000000000001	-1.825674633E-3	9.890282563E-2	4.053912721E-3
8.38	-3.126389410E-3	9.377843885E-2	1.889017977E-3
8.39	-2.599466287E-3	8.939386446E-2	1.154548500E-3
8.4	-1.846554420E-3	8.764100673E-2	4.267780043E-5
8.41	-1.504350216E-3	8.650491747E-2	-1.432002472E-3
8.42	-1.822396736E-3	8.394154458E-2	-2.961973718E-3
8.43	-2.909246593E-3	8.165411584E-2	-4.789994449E-3
8.44	-3.473823647E-3	7.853311956E-2	-4.476474887E-3
8.45	-2.882761350E-3	7.489965163E-2	-4.722430277E-3
8.46	-2.279210211E-3	7.027747992E-2	-4.640095466E-3
8.47	-2.773498774E-3	6.584814384E-2	-4.365150481E-3
8.48	-3.093451550E-3	6.063097440E-2	-4.465243387E-3
8.49	-2.815532377E-3	5.354222141E-2	-4.458128977E-3
8.5	-3.238705862E-3	4.521592275E-2	-4.695629234E-3
8.51	-2.425470615E-3	3.219806907E-2	-4.928126857E-3
8.52	-1.029827505E-3	1.714790025E-2	-4.542081449E-3
8.53	3.588174408E-4	-3.137706836E-3	-4.529545468E-3
8.540000000000001	1.143247976E-3	-3.007284530E-2	-3.894698508E-3
8.55	1.557620922E-3	-6.032639302E-2	-3.016650247E-3
8.56	2.482433273E-3	-9.190535479E-2	-2.981123162E-3
8.57	3.571019196E-3	-1.253137538E-1	-1.952435286E-3
8.58	4.161957547E-3	-1.597558731E-1	-2.174605028E-4
8.59	6.039478883E-3	-1.878306759E-1	-3.307553888E-4
8.6	6.674891869E-3	-2.131955782E-1	1.612637472E-3
8.61	8.088428686E-3	-2.292405764E-1	3.627560568E-3
8.620000000000001	7.715890901E-3	-2.367258231E-1	4.192612601E-3
8.63	6.492708527E-3	-2.352159826E-1	3.713864879E-3
8.64	6.691047170E-3	-2.267251657E-1	3.019088971E-3
8.65	5.473434817E-3	-2.116368532E-1	3.473685622E-3
8.66	4.679568987E-3	-1.914797970E-1	2.849568096E-3
8.67	4.272262762E-3	-1.702838341E-1	3.541958761E-3
8.68	3.867163668E-3	-1.508881227E-1	3.998730612E-3
8.69	2.377862813E-3	-1.336885935E-1	3.904682444E-3
8.700000000000001	1.772901205E-3	-1.190201684E-1	4.314781098E-3
8.71	1.783745110E-3	-1.080316132E-1	4.238816120E-3
8.72	1.135750117E-3	-1.012008029E-1	3.652192871E-3
8.73	1.015190641E-3	-9.697932281E-2	3.798077536E-3
8.74	1.060967753E-3	-9.725226201E-2	3.562138510E-3
8.75	9.256425173E-4	-9.739431530E-2	3.353643863E-3
8.76	6.038493989E-4	-9.647568177E-2	1.501546324E-3
8.77	1.735175560E-3	-9.449203409E-2	2.565125944E-4
8.78	3.067094256E-4	-9.424134391E-2	-1.118968610E-3
8.790000000000001	1.360246266E-3	-9.111791926E-2	-2.131496342E-3
8.8	1.204811642E-3	-8.900356211E-2	-4.167201090E-3
8.81	2.709136168E-3	-8.502746858E-2	-4.702403116E-3
8.82	2.970750631E-3	-8.171265471E-2	-5.236908754E-3
8.83	3.287961933E-3	-7.750830448E-2	-5.318415811E-3
8.84	3.287689990E-3	-7.208174807E-2	-5.761460482E-3
8.85	2.787994972E-3	-6.479628924E-2	-4.927398660E-3
8.86	2.117771792E-3	-5.422806143E-2	-4.453644256E-3
8.870000000000001	1.421630243E-3	-4.199734308E-2	-4.297053385E-3
8.88	7.336832577E-4	-2.799793394E-2	-3.670387881E-3
8.89	-1.143377801E-4	-9.832128515E-3	-3.888758083E-3
8.9	-7.907516606E-4	1.145614906E-2	-3.834655776E-3
8.91	-1.040161245E-3	3.613097627E-2	-4.070170024E-3
8.92	-3.168149879E-3	6.412382923E-2	-3.595282602E-3
8.93	-2.857861509E-3	9.195307098E-2	-2.182700205E-3
8.94	-3.747547259E-3	1.186283191E-1	-1.314093637E-3
8.950000000000001	-5.102223969E-3	1.436113055E-1	-2.025736912E-4
8.96	-5.877217905E-3	1.677010777E-1	2.541070908E-4
8.97	-5.855616572E-3	1.882799756E-1	1.884195782E-3
8.98	-6.355005627E-3	2.051183063E-1	2.689882126E-3
8.99	-7.072040131E-3	2.185688051E-1	3.025162649E-3
9.0	-7.642242601E-3	2.257958492E-1	3.207676840E-3
9.01	-7.337262819E-3	2.272417691E-1	3.812065214E-3
9.02	-6.842551613E-3	2.228097578E-1	3.651715104E-3
9.03	-7.112494182E-3	2.122302594E-1	3.335629086E-3
9.040000000000001	-6.926684637E-3	1.964875473E-1	3.659742559E-3
9.05	-5.146144023E-3	1.785959753E-1	3.497174216E-3
9.06	-4.470404079E-3	1.570274743E-1	3.896363211E-3
9.07	-3.343923534E-3	1.349000049E-1	4.050983164E-3
9.08	-3.160895173E-3	1.143899561E-1	5.103181614E-3
9.09	-2.423075428E-3	9.632584058E-2	4.841969443E-3
9.1	-2.117515484E-3	8.266838897E-2	5.144648787E-3
9.11	-1.339634646E-3	7.688353298E-2	4.200658453E-3
9.120000000000001	-1.850955924E-3	7.559378110E-2	4.219468069E-3
9.13	-1.208927026E-3	7.787401996E-2	2.437203360E-3
9.14	-1.927693769E-3	8.334935964E-2	7.842542059E-4
9.15	-2.031797369E-3	9.261217396E-2	-8.291173850E-4
9.16	-3.289271389E-3	1.017919020E-1	-1.792807542E-3
9.17	-4.182018510E-3	1.098771783E-1	-2.774428535E-3
9.18	-4.526173808E-3	1.132567206E-1	-3.196123824E-3
9.19	-4.539548745E-3	1.116121515E-1	-3.931433725E-3
9.200000000000001	-3.665373242E-3	1.052589299E-1	-5.399964957E-3
9.21	-3.478220874E-3	9.366434138E-2	-5.249430923E-3
9.22	-3.717654100E-3	7.828010689E-2	-4.540522073E-3
9.23	-2.337767309E-3	6.003851382E-2	-4.543172216E-3
9.24	-3.694873145E-3	4.013105534E-2	-3.914191294E-3
9.25	-2.559064915E-3	1.589598857E-2	-3.391291666E-3
9.26	-9.836798810E-4	-4.190406708E-3	-4.735877085E-3
9.27	-1.019628499E-3	-2.340752070E-2	-3.856100428E-3
9.28	-1.161489266E-4	-4.410844527E-2	-4.512614607E-3
9.290000000000001	2.500418707E-4	-6.425947222E-2	-3.115990960E-3
9.3	1.145925653E-3	-8.588174914E-2	-2.931667615E-3
9.31	2.660485963E-3	-1.076293055E-1	-2.241847086E-3
9.32	3.899341533E-3	-1.292882101E-1	-1.100470590E-3
9.33	4.713041325E-3	-1.505778586E-1	-2.837013875E-4
9.34	4.737054796E-3	-1.712258569E-1	4.343513457E-4
9.35	4.727885784E-3	-1.896660051E-1	1.252678213E-3
9.36	5.783263126E-3	-2.041155357E-1	2.029000256E-3
9.370000000000001	6.685809652E-3	-2.154486386E-1	2.559979391E-3
9.38	6.036502133E-3	-2.201700131E-1	3.204853964E-3
9.39	6.388541348E-3	-2.192123327E-1	4.055083791E-3
9.4	6.034284870E-3	-2.116303277E-1	3.836994488E-3
9.41	4.570867280E-3	-1.984712640E-1	3.093216849E-3
9.42	2.557772618E-3	-1.825367697E-1	4.140489265E-3
9.43	2.579115136E-3	-1.631115981E-1	5.156024035E-3
9.44	2.808352271E-3	-1.428024331E-1	5.052578879E-3
9.450000000000001	2.017499218E-3	-1.248635427E-1	4.705574942E-3
9.46	2.116332556E-3	-1.098620265E-1	5.319040003E-3
9.47	5.803658412E-4	-9.624100447E-2	4.756082046E-3
9.48	7.512581226E-4	-8.610272554E-2	3.889692631E-3
9.49	1.281128738E-3	-8.111717686E-2	2.299462069E-3
9.5	1.937355725E-3	-7.849909520E-2	1.056508119E-3
9.51	2.488295297E-3	-7.897319950E-2	-2.164335726E-4
9.52	2.075053624E-3	-8.442016918E-2	-1.130128958E-3
9.53	2.077228917E-3	-9.101161723E-2	-9.408850207E-4
9.540000000000001	2.173559483E-3	-9.781534302E-2	-2.372571242E-3
9.55	2.071548211E-3	-1.037407947E-1	-3.675056805E-3
9.56	1.118428419E-3	-1.067082087E-1	-4.452349710E-3
9.57	3.786527524E-3	-1.049642722E-1	-4.236914682E-3
9.58	2.534838179E-3	-1.037087480E-1	-4.459120798E-3
9.59	3.952897650E-3	-9.726173919E-2	-2.975775339E-3
9.6	3.019490028E-3	-8.272176975E-2	-4.234080636E-3
9.61	2.120077205E-3	-6.516152495E-2	-4.879361127E-3
9.620000000000001	1.506916055E-3	-4.183433377E-2	-4.584380941E-3
9.63	2.467477418E-4	-1.451573569E-2	-4.244029093E-3
9.64	-5.968619643E-4	1.535608258E-2	-4.891215959E-3
9.65	-6.961138194E-4	4.373445064E-2	-4.405834444E-3
9.66	-1.921853514E-3	7.203902877E-2	-4.190782206E-3
9.67	-3.557866501E-3	9.892869883E-2	-4.259575257E-3
9.68	-4.541496277E-3	1.212700539E-1	-3.009004417E-3
9.69	-5.498569598E-3	1.421512517E-1	-1.999804544E-3
9.700000000000001	-5.222374787E-3	1.598938116E-1	-8.302374361E-4
9.71	-6.084327392E-3	1.715274427E-1	5.958260021E-4
9.72	-5.897045686E-3	1.804869289E-1	1.886767857E-3
9.73	-5.976071050E-3	1.874434193E-1	2.872918081E-3
9.74	-6.599486109E-3	1.922330279E-1	3.768803723E-3
9.75	-5.796437791E-3	1.933832250E-1	2.731732310E-3
9.76	-6.510263970E-3	1.925675806E-1	2.209275198E-3
9.77	-5.831076493E-3	1.919751628E-1	3.516838980E-3
9.78	-5.780469885E-3	1.886519703E-1	3.630093653E-3
9.790000000000001	-5.521170863E-3	1.821672419E-1	4.536124488E-3
9.8	-4.565708421E-3	1.735655204E-1	4.844911770E-3
9.81	-3.762288773E-3	1.610779625E-1	4.956172419E-3
9.82	-3.545376982E-3	1.454855661E-1	5.537790881E-3
9.83	-2.997682979E-3	1.294317111E-1	5.558274222E-3
9.84	-1.832810990E-3	1.136297185E-1	4.400068320E-3
9.85	-1.159218528E-3	9.860432282E-2	3.807369999E-3
9.86	-9.921078563E-4	8.595232061E-2	3.844301515E-3
9.870000000000001	-1.093424716E-3	7.652869120E-2	1.730852043E-3
9.88	-1.969133904E-3	7.211950622E-2	3.503541472E-4
9.89	-2.825299492E-3	7.352059089E-2	6.215376874E-5
9.9	-3.212536664E-3	7.776309361E-2	-1.305652303E-4
9.91	-4.007321700E-3	8.788881430E-2	-1.790575809E-3
9.92	-3.790258458E-3	9.706517659E-2	-2.137877512E-3
9.93	-4.270043973E-3	1.053551791E-1	-3.138014839E-3
9.94	-4.028291650E-3	1.100746572E-1	-3.793075563E-3
9.950000000000001	-3.517513460E-3	1.106545521E-1	-3.852855823E-3
9.96	-3.729670045E-3	1.051696272E-1	-3.996893880E-3
9.97	-3.514830162E-3	9.387647949E-2	-3.927771616E-3
9.98	-2.557340851E-3	7.629748426E-2	-3.633391428E-3
9.99	-2.189042717E-3	5.441765473E-2	-4.332790084E-3
10.0	-1.571405669E-3	2.725420799E-2	-4.716388965E-3
10.01	-1.426229054E-3	-3.937604366E-3	-3.965299810E-3
10.02	-7.390479307E-4	-3.458355872E-2	-3.580878481E-3
10.03	3.961600858E-4	-6.661851774E-2	-4.862038686E-3
10.040000000000001	1.102037837E-3	-9.495974476E-2	-2.460785571E-3
10.05	2.337363397E-3	-1.199815782E-1	-3.202443521E-3
10.06	2.877723103E-3	-1.403084418E-1	-1.802493585E-3
10.07	3.279410301E-3	-1.611552555E-1	-1.183898065E-3
10.08	4.188857188E-3	-1.750743048E-1	-4.771600668E-4
10.09	5.684372374E-3	-1.855648061E-1	9.763353136E-4
10.1	6.355026523E-3	-1.922794691E-1	1.960289908E-3
10.11	6.256002346E-3	-1.948186628E-1	1.977322531E-3
10.120000000000001	6.424975080E-3	-1.944385061E-1	3.006827278E-3
10.13	6.218125227E-3	-1.906715455E-1	3.944780118E-3
10.14	6.054265916E-3	-1.847676317E-1	3.956660160E-3
10.15	5.333487427E-3	-1.772267521E-1	3.673000261E-3
10.16	3.540211777E-3	-1.675485102E-1	3.326657248E-3
10.17	3.063478181E-3	-1.571427385E-1	3.565724325E-3
10.18	1.916839972E-3	-1.468851731E-1	4.149775155E-3
10.19	1.378900758E-3	-1.379368661E-1	5.079157513E-3
10.200000000000001	1.690115724E-3	-1.284681973E-1	4.884056974E-3
10.21	1.574751454E-3	-1.204569168E-1	5.098812534E-3
10.22	6.717930448E-4	-1.131513329E-1	4.140176067E-3
10.23	1.628550983E-4	-1.069633285E-1	3.770115805E-3
10.24	1.424311856E-3	-1.005997340E-1	3.287270498E-3
10.25	2.044632569E-3	-9.643609593E-2	2.194402567E-3
10.26	2.353892813E-3	-9.348926589E-2	9.375522349E-4
10.27	2.676926143E-3	-9.119991476E-2	-7.607756406E-4
10.28	2.685637730E-3	-9.067835183E-2	-2.396229094E-3
10.290000000000001	2.490481801E-3	-9.164595165E-2	-3.312115156E-3
10.3	2.421065877E-3	-9.283581652E-2	-3.531138468E-3
10.31	2.845509807E-3	-9.265864529E-2	-3.951766062E-3
10.32	3.726576129E-3	-9.448647656E-2	-4.510829019E-3
10.33	3.637946476E-3	-9.385159203E-2	-3.545406078E-3
10.34	2.702387842E-3	-8.906653272E-2	-3.874536774E-3
10.35	8.292088009E-4	-8.147140540E-2	-3.555991220E-3
10.36	8.225047685E-4	-6.665608682E-2	-4.234053659E-3
10.370000000000001	1.747624735E-3	-4.886429407E-2	-4.124857950E-3
10.38	6.090113572E-5	-2.395413375E-2	-4.807935425E-3
10.39	-4.345795109E-4	6.391484491E-3	-5.109329696E-3
10.4	-1.945000579E-3	4.020249836E-2	-5.239226389E-3
10.41	-2.041151514E-3	7.393967472E-2	-3.986575174E-3
10.42	-3.866873523E-3	1.067833325E-1	-4.025218057E-3
10.43	-4.087332179E-3	1.388821109E-1	-3.461577463E-3
10.44	-5.475394418E-3	1.645828088E-1	-1.353137064E-3
10.450000000000001	-6.028085986E-3	1.844963438E-1	8.402126684E-4
10.46	-5.827806406E-3	1.959800677E-1	1.588874311E-3
10.47	-6.175518191E-3	2.019820872E-1	1.198274987E-3
10.48	-6.290503077E-3	2.012894202E-1	2.166034433E-3
10.49	-6.272950759E-3	1.956959375E-1	2.961247397E-3
10.5	-6.640317728E-3	1.867412337E-1	2.843068075E-3
10.51	-6.104052550E-3	1.764808167E-1	4.054137892E-3
10.52	-5.164098234E-3	1.648934330E-1	3.977752960E-3
10.53	-5.312690977E-3	1.530869262E-1	3.689197387E-3
10.540000000000001	-5.355324848E-3	1.454232595E-1	4.484723680E-3
10.55	-4.083692124E-3	1.373701175E-1	4.260609579E-3
10.56	-4.371955087E-3	1.307075342E-1	4.178307486E-3
10.57	-3.499508490E-3	1.264650067E-1	5.608056021E-3
10.58	-3.447476646E-3	1.221540752E-1	4.679104568E-3
10.59	-2.836786217E-3	1.180160812E-1	4.837276864E-3
10.6	-2.341661699E-3	1.130575253E-1	4.126884915E-3
10.61	-2.608631882E-3	1.096207157E-1	3.039665282E-3
10.620000000000001	-2.613367402E-3	1.059724990E-1	1.625526071E-3
10.63	-2.682649007E-3	1.025380138E-1	8.996258968E-4
10.64	-3.375943400E-3	1.002458106E-1	3.788309862E-4
10.65	-3.827737816E-3	9.808379072E-2	-1.654553973E-3
10.66	-3.572883250E-3	9.657983781E-2	-2.347041953E-3
10.67	-4.617120912E-3	9.702494942E-2	-2.641417551E-3
10.68	-3.977623363E-3	9.618867761E-2	-3.953499067E-3
10.69	-4.143345155E-3	9.498931987E-2	-3.666264028E-3
10.700000000000001	-3.291307380E-3	9.076229177E-2	-4.241492319E-3
10.71	-2.884101262E-3	8.405795060E-2	-4.059702921E-3
10.72	-3.499952328E-3	7.489043146E-2	-3.389490694E-3
10.73	-2.741435697E-3	5.985431025E-2	-4.151379160E-3
10.74	-1.787348971E-3	4.224522829E-2	-5.159197837E-3
10.75	-6.938643846E-4	2.049524524E-2	-5.632653689E-3
10.76	3.024849392E-4	-4.877638297E-3	-4.963423776E-3
10.77	7.635122634E-4	-3.194360949E-2	-3.930651712E-3
10.78	1.261711959E-3	-5.951572439E-2	-4.618985454E-3
10.790000000000001	2.038515344E-3	-8.811040466E-2	-4.372669199E-3
10.8	2.834634288E-3	-1.158630993E-1	-2.283505670E-3
10.81	3.469283407E-3	-1.411401967E-1	-2.099048980E-3
10.82	4.238552386E-3	-1.667567054E-1	-1.153208780E-3
10.83	4.998192801E-3	-1.836296187E-1	1.613014772E-3
10.84	6.020601100E-3	-1.958612730E-1	1.749863903E-3
10.85	6.745951930E-3	-2.040643112E-1	2.151444388E-3
10.86	5.860863412E-3	-2.069222132E-1	2.946865988E-3
10.870000000000001	5.700164803E-3	-2.027020562E-1	2.328719806E-3
10.88	5.253601908E-3	-1.940009657E-1	2.344923913E-3
10.89	4.825529016E-3	-1.816018507E-1	3.147998834E-3
10.9	4.298491322E-3	-1.661333969E-1	3.334923666E-3
10.91	3.821003447E-3	-1.492608301E-1	3.855297995E-3
10.92	3.506309847E-3	-1.328906218E-1	4.837296438E-3
10.93	2.358418194E-3	-1.196955620E-1	4.534276242E-3
10.94	1.432237097E-3	-1.096585836E-1	4.621303219E-3
10.950000000000001	1.938852640E-3	-1.028046673E-1	4.345223495E-3
10.96	1.211140426E-3	-1.016758420E-1	4.554459312E-3
10.97	1.353059868E-3	-1.027692715E-1	2.971528006E-3
10.98	1.464151750E-3	-1.068585674E-1	2.223561239E-3
10.99	1.952568600E-3	-1.128842989E-1	1.419232321E-3
11.0	7.350618678E-4	-1.178404024E-1	7.067630141E-4
11.01	5.758834799E-4	-1.219473310E-1	1.542991562E-3
11.02	1.939966723E-3	-1.229134119E-1	-9.165358882E-4
11.03	1.923620992E-3	-1.212540336E-1	-1.988202692E-3
11.040000000000001	2.225902246E-3	-1.164161403E-1	-1.950645943E-3
11.05	2.849196699E-3	-1.084741295E-1	-2.813614734E-3
11.06	3.427244730E-3	-9.903137061E-2	-4.069082368E-3
11.07	3.917983700E-3	-8.851915092E-2	-4.113930215E-3
11.08	3.403770695E-3	-7.662281908E-2	-3.046221960E-3
11.09	3.124769191E-3	-6.357427038E-2	-3.044535684E-3
11.1	1.403989161E-3	-5.120338557E-2	-3.302844668E-3
11.11	2.238091232E-3	-3.555257455E-2	-4.808120279E-3
11.120000000000001	-1.171803861E-4	-1.961213868E-2	-4.818600110E-3
11.13	-1.475530722E-3	-2.842432238E-4	-4.660636875E-3
11.14	-1.637201747E-3	2.203510485E-2	-4.405085611E-3
11.15	-2.340331068E-3	4.600508533E-2	-3.416544962E-3
11.16	-3.505915777E-3	7.111093492E-2	-2.343880919E-3
11.17	-3.610690974E-3	9.815411330E-2	-2.668658841E-3
11.18	-5.022159632E-3	1.247556586E-1	-2.447524784E-3
11.19	-5.954621394E-3	1.495863858E-1	-1.054330950E-3
11.200000000000001	-4.520011833E-3	1.723392519E-1	1.602105620E-4
11.21	-5.951745202E-3	1.898491081E-1	3.456429960E-4
11.22	-6.957415294E-3	1.994015358E-1	2.106535777E-3
11.23	-7.088878744E-3	2.026754062E-1	2.012139401E-3
11.24	-6.966311326E-3	2.025738081E-1	2.529023123E-3
11.25	-7.281331472E-3	1.956140672E-1	3.293493363E-3
11.26	-7.215135590E-3	1.829034883E-1	3.672503530E-3
11.27	-5.785874417E-3	1.690563329E-1	3.341992331E-3
11.28	-4.521161010E-3	1.543760427E-1	4.262688589E-3
11.290000000000001	-4.831511670E-3	1.391241836E-1	4.416003874E-3
11.3	-4.314429275E-3	1.254598336E-1	4.757297735E-3
11.31	-3.382188054E-3	1.141659736E-1	5.215646758E-3
11.32	-2.797917463E-3	1.058996384E-1	5.656595084E-3
11.33	-2.343012085E-3	9.967619501E-2	5.308907461E-3
11.34	-2.597371777E-3	9.698740564E-2	4.425099325E-3
11.35	-3.120096227E-3	9.870104486E-2	3.985479229E-3
11.36	-2.823252757E-3	1.018573348E-1	2.154547333E-3
11.370000000000001	-3.592829458E-3	1.058490575E-1	-4.058358581E-5
11.38	-2.939063838E-3	1.127481226E-1	9.257253242E-5
11.39	-2.555235317E-3	1.190200051E-1	-5.823393343E-4
11.4	-3.087288098E-3	1.221399862E-1	-2.210672963E-3
11.41	-2.973092945E-3	1.231964784E-1	-2.453785271E-3
11.42	-3.427490582E-3	1.225881299E-1	-3.204752970E-3
11.43	-3.811136176E-3	1.183298930E-1	-4.104563761E-3
11.44	-3.935106495E-3	1.097117327E-1	-3.571924167E-3
11.450000000000001	-3.796236391E-3	9.600764729E-2	-3.798057491E-3
11.46	-3.463881602E-3	7.850053035E-2	-4.392249155E-3
11.47	-2.890614262E-3	5.821359597E-2	-3.989836740E-3
11.48	-1.963463852E-3	3.692281722E-2	-3.784492252E-3
11.49	-1.008960361E-3	1.299868185E-2	-4.404695732E-3
11.5	-4.559462605E-4	-1.186905441E-2	-4.537407418E-3
11.51	5.774849929E-4	-3.600129394E-2	-4.077539063E-3
11.52	1.898746649E-3	-5.949684896E-2	-3.705565500E-3
11.53	6.853650607E-4	-8.103125729E-2	-4.060904550E-3
11.540000000000001	2.485261148E-3	-1.003916501E-1	-3.211957238E-3
11.55	3.570845424E-3	-1.184158196E-1	-1.599837967E-3
11.56	4.707816029E-3	-1.350680152E-1	-2.903242586E-4
11.57	4.484558881E-3	-1.509391098E-1	-1.090686447E-3
11.58	6.310356714E-3	-1.643179651E-1	2.446505858E-4
11.59	6.390782679E-3	-1.743822276E-1	1.605862528E-4
11.6	5.801926891E-3	-1.837856149E-1	1.391454499E-3
11.61	5.509777824E-3	-1.895627109E-1	2.576592398E-3
11.620000000000001	4.854532564E-3	-1.912283102E-1	2.939217520E-3
11.63	5.167616015E-3	-1.887027307E-1	2.545257391E-3
11.64	4.593223006E-3	-1.817255399E-1	3.525720894E-3
11.65	3.739591902E-3	-1.716957532E-1	4.729137985E-3
11.66	3.749086810E-3	-1.580730226E-1	4.330118270E-3
11.67	2.913888702E-3	-1.419008676E-1	4.099667502E-3
11.68	2.423364381E-3	-1.255957834E-1	5.196412039E-3
11.69	1.417736793E-3	-1.113104632E-1	4.329685348E-3
11.700000000000001	9.978495259E-4	-1.003134921E-1	4.309702281E-3
11.71	1.671967814E-3	-9.281513490E-2	4.489491415E-3
11.72	1.591558310E-3	-8.997901743E-2	2.698756382E-3
11.73	1.608882722E-3	-9.248693971E-2	2.784906864E-3
11.74	2.403253476E-3	-9.835953392E-2	1.464512778E-3
11.75	3.033024529E-3	-1.062165336E-1	3.390626433E-4
11.76	2.705888742E-3	-1.169336114E-1	-3.525647529E-4
11.77	3.242033183E-3	-1.257079130E-1	-1.881697525E-3
11.78	3.345923221E-3	-1.314555991E-1	-2.163080235E-3
11.790000000000001	2.925949783E-3	-1.326772317E-1	-2.245781711E-3
11.8	3.292363743E-3	-1.300283114E-1	-2.067420053E-3
11.81	3.625636632E-3	-1.219219176E-1	-2.356802988E-3
11.82	3.191611743E-3	-1.084896645E-1	-4.082997740E-3
11.83	3.224805873E-3	-9.121086658E-2	-4.108509833E-3
11.84	1.833230170E-3	-7.013632579E-2	-4.193796013E-3
11.85	1.939377107E-3	-4.680670623E-2	-4.570980487E-3
11.86	1.339332856E-4	-2.160870381E-2	-4.217745828E-3
11.870000000000001	2.284214863E-5	5.348092838E-3	-5.190779733E-3
11.88	-7.413870000E-4	3.104075096E-2	-4.825903940E-3
11.89	-1.064920149E-3	5.504653251E-2	-4.290445056E-3
11.9	-5.488606223E-4	7.723370171E-2	-3.977050807E-3
11.91	-3.748850298E-3	9.916666345E-2	-2.397464722E-3
11.92	-4.400155379E-3	1.185659664E-1	-1.763751447E-3
11.93	-4.869373729E-3	1.367355569E-1	-8.061666963E-4
11.94	-4.832982411E-3	1.506288274E-1	-7.860250948E-4
11.950000000000001	-5.739823681E-3	1.613326738E-1	-2.741535744E-4
11.96	-6.355041163E-3	1.693643092E-1	8.118473821E-4
11.97	-5.820849895E-3	1.745153064E-1	8.867337520E-4
11.98	-4.940627114E-3	1.767454497E-1	8.333921439E-4
11.99	-4.233051232E-3	1.766316743E-1	2.082616109E-3
12.0	-4.552433491E-3	1.734033258E-1	2.306117754E-3
12.01	-5.177364340E-3	1.681289157E-1	3.210041952E-3
12.02	-5.075848689E-3	1.589169701E-1	3.740570975E-3
12.030000000000001	-5.026050498E-3	1.522735556E-1	4.845784140E-3
12.040000000000001	-5.016590297E-3	1.431994752E-1	5.487128982E-3
12.05	-3.940525075E-3	1.335250049E-1	5.425016950E-3
12.06	-3.999635682E-3	1.267299236E-1	5.200345439E-3
12.07	-2.342412091E-3	1.172190936E-1	5.023797961E-3
12.08	-2.196915328E-3	1.095852946E-1	4.593281132E-3
12.09	-2.491600760E-3	1.051065037E-1	4.242259708E-3
12.1	-2.235788368E-3	1.020646208E-1	2.827955793E-3
12.11	-1.981008639E-3	1.001236209E-1	1.399434042E-3
12.120000000000001	-2.448656979E-3	1.000829691E-1	1.146348871E-3
12.13	-3.487230467E-3	1.027724005E-1	3.649924732E-4
12.14	-3.747164299E-3	1.080570468E-1	-6.736250398E-4
12.15	-4.771116962E-3	1.146882256E-1	-1.731020975E-3
12.16	-4.788819129E-3	1.191575717E-1	-2.223976254E-3
12.17	-4.225950867E-3	1.214988971E-1	-2.516238754E-3
12.18	-4.392039735E-3	1.216287132E-1	-2.971794498E-3
12.19	-5.086431677E-3	1.167795144E-1	-3.759885587E-3
12.200000000000001	-3.227426441E-3	1.063735168E-1	-3.818943632E-3
12.21	-2.177333822E-3	8.970252357E-2	-2.551772165E-3
12.22	-2.649087300E-3	6.785418711E-2	-3.364150095E-3
12.23	-2.465431108E-3	4.241988269E-2	-5.188631012E-3
12.24	-1.819758902E-3	1.038025552E-2	-5.270689844E-3
12.25	-1.556340655E-3	-2.080698650E-2	-5.081845428E-3
12.26	-6.125666021E-4	-5.196662420E-2	-4.830713964E-3
12.27	1.248290101E-3	-8.251757778E-2	-4.016825723E-3
12.280000000000001	2.713733176E-3	-1.088467065E-1	-2.697016763E-3
12.290000000000001	2.713620715E-3	-1.297719784E-1	-1.903433003E-3
12.3	3.025825911E-3	-1.447611372E-1	-1.708463427E-3
12.31	4.663069380E-3	-1.564669640E-1	-1.310242982E-3
12.32	6.019682851E-3	-1.633221412E-1	-5.523297355E-5
12.33	5.988235185E-3	-1.658670226E-1	-3.946562288E-4
12.34	4.672381440E-3	-1.672403256E-1	5.285005095E-4
12.35	6.066764677E-3	-1.654197852E-1	1.408646536E-3
12.36	5.061163072E-3	-1.641001084E-1	1.163620400E-3
12.370000000000001	5.360942256E-3	-1.601543421E-1	3.029718798E-3
12.38	4.400964080E-3	-1.568702481E-1	2.244223573E-3
12.39	3.460348965E-3	-1.525229756E-1	2.488377920E-3
12.4	2.820496819E-3	-1.479593835E-1	3.571345090E-3
12.41	2.286990146E-3	-1.433310644E-1	4.744370413E-3
12.42	2.430067966E-3	-1.380036847E-1	5.318234396E-3
12.43	2.957750419E-3	-1.317958037E-1	4.951813650E-3
12.44	2.016646305E-3	-1.252625276E-1	4.485186770E-3
12.450000000000001	1.201478843E-3	-1.192078781E-1	4.564289416E-3
12.46	1.144344008E-3	-1.143883239E-1	4.191073574E-3
12.47	4.307884002E-4	-1.109730817E-1	4.156374206E-3
12.48	1.767736087E-3	-1.080403367E-1	2.677510214E-3
12.49	2.786708782E-3	-1.079445759E-1	1.701710654E-3
12.5	3.149669776E-3	-1.103177110E-1	1.627896261E-3
12.51	2.953847138E-3	-1.137554838E-1	-2.830438271E-4
12.52	3.017531639E-3	-1.167884324E-1	-1.389736814E-3
12.530000000000001	3.808910516E-3	-1.195660289E-1	-2.785115193E-3
12.540000000000001	2.726722007E-3	-1.198967502E-1	-2.293835926E-3
12.55	2.806053618E-3	-1.177665416E-1	-2.583338785E-3
12.56	2.796476642E-3	-1.133267394E-1	-3.938471842E-3
12.57	2.632080928E-3	-1.041652368E-1	-4.033778422E-3
12.58	2.360302052E-3	-8.986460539E-2	-4.078188737E-3
12.59	1.732833787E-3	-7.211427834E-2	-4.879212754E-3
12.6	1.131717804E-3	-5.003591260E-2	-5.141807703E-3
12.61	3.032507099E-4	-2.431798246E-2	-4.452807474E-3
12.620000000000001	-1.167172035E-3	4.227606727E-3	-4.585768747E-3
12.63	-2.115810925E-3	3.138758728E-2	-4.490819290E-3
12.64	-2.466582934E-3	5.967796622E-2	-4.400985623E-3
12.65	-2.922984054E-3	8.912791215E-2	-4.086615610E-3
12.66	-2.801895830E-3	1.151723310E-1	-2.865253113E-3
12.67	-4.315966823E-3	1.370940031E-1	-1.890474855E-3
12.68	-4.661175003E-3	1.551850828E-1	-9.867544649E-4
12.69	-5.378668895E-3	1.690155276E-1	-1.170966196E-3
12.700000000000001	-5.703981566E-3	1.762625870E-1	4.769829930E-4
12.71	-6.273056711E-3	1.789015342E-1	9.434663732E-5
12.72	-6.468838947E-3	1.762029068E-1	4.920740104E-4
12.73	-5.871206432E-3	1.683666225E-1	1.884548403E-3
12.74	-5.159934451E-3	1.589022287E-1	2.521088553E-3
12.75	-5.163765242E-3	1.492785009E-1	2.499974203E-3
12.76	-4.864350791E-3	1.400294398E-1	3.784388080E-3
12.77	-4.147125701E-3	1.315078357E-1	5.027116277E-3
12.780000000000001	-4.472628438E-3	1.238905522E-1	4.793310699E-3
12.790000000000001	-3.357174641E-3	1.192101382E-1	4.584927935E-3
12.8	-2.654833188E-3	1.174063047E-1	5.644391012E-3
12.81	-3.993671229E-3	1.186426719E-1	4.993222189E-3
12.82	-3.695832779E-3	1.206442317E-1	4.817936850E-3
12.83	-3.438518832E-3	1.232306069E-1	4.993911022E-3
12.84	-3.288007554E-3	1.248975492E-1	4.266611347E-3
12.85	-4.081573362E-3	1.264319618E-1	3.361262589E-3
12.86	-4.513534797E-3	1.265195321E-1	1.377396507E-3
12.870000000000001	-4.066838612E-3	1.249968823E-1	1.215104582E-4
12.88	-3.456603577E-3	1.232391628E-1	-7.068701265E-4
12.89	-4.005234042E-3	1.202265132E-1	-1.219995245E-3
12.9	-3.888927363E-3	1.164860266E-1	-1.165901551E-3
12.91	-4.086123848E-3	1.128294294E-1	-1.349928224E-3
12.92	-4.943845310E-3	1.087684367E-1	-2.837206101E-3
12.93	-3.750028721E-3	1.037945857E-1	-4.374532500E-3
12.94	-3.197755398E-3	9.547814307E-2	-2.565897252E-3
12.950000000000001	-3.600481826E-3	8.607181362E-2	-3.133108782E-3
12.96	-4.164999654E-3	7.284707182E-2	-3.858871238E-3
12.97	-2.293008383E-3	5.604447346E-2	-5.342978405E-3
12.98	-1.544442975E-3	3.396799272E-2	-5.802494480E-3
12.99	-6.656121427E-4	9.385232469E-3	-5.089738147E-3
13.0	8.465750652E-5	-1.783983520E-2	-4.422785976E-3
13.01	6.940693690E-4	-4.640734930E-2	-4.296476095E-3
13.02	1.778799919E-3	-7.550314999E-2	-4.035532028E-3
13.030000000000001	2.993375818E-3	-1.048171679E-1	-2.950179148E-3
13.040000000000001	3.844945440E-3	-1.311028186E-1	-1.232344675E-3
13.05	4.429778114E-3	-1.504422379E-1	-2.033423291E-3
13.06	4.641219946E-3	-1.659115749E-1	-1.006138989E-3
13.07	4.551713700E-3	-1.751411954E-1	2.009133818E-4
13.08	4.182772466E-3	-1.786943923E-1	-3.931407567E-4
13.09	5.200010487E-3	-1.771979885E-1	9.232505254E-4
13.1	4.974817047E-3	-1.717820398E-1	9.789781096E-4
13.11	4.782514954E-3	-1.646756641E-1	1.888955069E-3
13.120000000000001	4.009941014E-3	-1.540282175E-1	1.709717947E-3
13.13	3.361428471E-3	-1.438136246E-1	2.681167364E-3
13.14	2.944082172E-3	-1.353375711E-1	3.140029878E-3
13.15	2.784619469E-3	-1.271691907E-1	3.529048079E-3
13.16	2.486954639E-3	-1.195621935E-1	4.640191031E-3
13.17	2.213249514E-3	-1.147590438E-1	5.094902945E-3
13.18	2.469196007E-3	-1.131701532E-1	4.287916454E-3
13.19	2.174790966E-3	-1.138270110E-1	4.077809286E-3
13.200000000000001	1.596455457E-3	-1.152917806E-1	3.975628257E-3
13.21	2.146832415E-3	-1.191382820E-1	3.912573627E-3
13.22	1.595353494E-3	-1.230970065E-1	3.569100332E-3
13.23	2.305952618E-3	-1.283470074E-1	1.562855673E-3
13.24	2.276265035E-3	-1.322265665E-1	1.115582419E-3
13.25	3.055771946E-3	-1.366699496E-1	3.606268421E-4
13.26	2.799393651E-3	-1.363672095E-1	-1.328269820E-3
13.27	3.749805531E-3	-1.352080256E-1	-1.025079348E-3
13.280000000000001	4.123708331E-3	-1.302049476E-1	-1.647013056E-3
13.290000000000001	3.247918942E-3	-1.228788039E-1	-1.701047972E-3
13.3	3.033161672E-3	-1.117678072E-1	-2.062849891E-3
13.31	3.588861684E-3	-9.782610335E-2	-3.158328104E-3
13.32	3.579476634E-3	-8.216610827E-2	-3.976409006E-3
13.33	2.572621009E-3	-6.503163880E-2	-4.266898010E-3
13.34	1.509676117E-3	-4.590485048E-2	-4.653259478E-3
13.35	1.259950131E-3	-2.539198483E-2	-4.845821050E-3
13.36	-2.241055603E-4	-4.981422638E-3	-4.235578229E-3
13.370000000000001	-1.121586403E-3	1.669277750E-2	-4.034831095E-3
13.38	-4.074115147E-3	4.010040961E-2	-3.776289987E-3
13.39	-1.887731095E-3	6.168652974E-2	-4.660250711E-3
13.4	-3.966497634E-3	8.489543968E-2	-2.888545109E-3
13.41	-4.157878557E-3	1.063170893E-1	-2.920138645E-3
13.42	-4.690691139E-3	1.254828000E-1	-2.164774830E-3
13.43	-5.638215308E-3	1.438930088E-1	-2.388597841E-3
13.44	-5.410272171E-3	1.599549182E-1	-1.361529398E-3
13.450000000000001	-5.617513945E-3	1.705118068E-1	-2.849646089E-4
13.46	-5.236900702E-3	1.770049526E-1	2.667129751E-4
13.47	-5.195458503E-3	1.783524548E-1	1.125659610E-3
13.48	-5.646357387E-3	1.745149889E-1	1.871772444E-3
13.49	-5.235970782E-3	1.660733904E-1	1.994893632E-3
13.5	-4.596842293E-3	1.542952237E-1	2.267535957E-3
13.51	-4.239220610E-3	1.401585015E-1	3.186085654E-3
13.52	-4.045291693E-3	1.272788106E-1	3.241347598E-3
13.530000000000001	-3.868573380E-3	1.169830802E-1	4.430467622E-3
13.540000000000001	-2.763051381E-3	1.063786229E-1	5.259392691E-3
13.55	-1.996788310E-3	1.007990852E-1	3.885889783E-3
13.56	-2.017593020E-3	1.001695470E-1	4.050470773E-3
13.57	-1.623027911E-3	1.041732725E-1	4.259579611E-3
13.58	-3.042119732E-3	1.111639579E-1	4.385521841E-3
13.59	-3.758712721E-3	1.193603202E-1	3.282337218E-3
13.6	-3.739494789E-3	1.272757142E-1	1.128770779E-3
13.61	-3.645174545E-3	1.354352074E-1	2.235176250E-4
13.620000000000001	-4.141878841E-3	1.413589072E-1	2.190131204E-4
13.63	-4.530546656E-3	1.444609793E-1	-3.696127413E-4
13.64	-4.194783261E-3	1.435232147E-1	-1.321703958E-3
13.65	-4.063422352E-3	1.384309515E-1	-2.154011650E-3
13.66	-4.228147381E-3	1.306707175E-1	-2.782029930E-3
13.67	-4.322517092E-3	1.190000394E-1	-2.065741489E-3
13.68	-3.810850652E-3	1.034658663E-1	-2.581536001E-3
13.69	-3.397992840E-3	8.744910560E-2	-3.758074808E-3
13.700000000000001	-2.855945220E-3	6.715488635E-2	-4.563548136E-3
13.71	-3.058016887E-3	4.800318681E-2	-3.708293009E-3
13.72	-1.500021802E-4	2.629714240E-2	-5.706278137E-3
13.73	1.590615745E-4	3.330774080E-3	-4.905823963E-3
13.74	-3.585213711E-4	-1.817716279E-2	-5.379706131E-3
13.75	7.025234613E-4	-4.044915351E-2	-5.840778408E-3
13.76	1.834582249E-3	-6.270412244E-2	-5.185210275E-3
13.77	2.283160100E-3	-8.446837582E-2	-4.469248819E-3
13.780000000000001	2.578784903E-3	-1.038418293E-1	-3.074722461E-3
13.790000000000001	3.333473473E-3	-1.207668143E-1	-1.857790745E-3
13.8	3.975395818E-3	-1.357452087E-1	-1.479901260E-3
13.81	4.071798716E-3	-1.476985448E-1	-1.043076557E-3
13.82	4.333528924E-3	-1.568856737E-1	-2.866517783E-4
13.83	4.935970631E-3	-1.619534639E-1	-3.852016163E-4
13.84	4.743250246E-3	-1.660796205E-1	2.114991667E-4
13.85	4.322828139E-3	-1.640694539E-1	1.609681082E-3
13.86	3.083589087E-3	-1.603929082E-1	8.665780546E-4
13.870000000000001	4.286905885E-3	-1.545683798E-1	2.644124445E-3
13.88	3.632776033E-3	-1.480113171E-1	2.321236413E-3
13.89	2.873702221E-3	-1.393495315E-1	2.804577876E-3
13.9	2.355043217E-3	-1.303394622E-1	4.617354903E-3
13.91	2.084345529E-3	-1.229395548E-1	4.918129873E-3
13.92	2.028608779E-3	-1.156512228E-1	4.849369955E-3
13.93	2.211986197E-3	-1.097485608E-1	5.266077659E-3
13.94	2.181161422E-3	-1.074665757E-1	5.445870961E-3
13.950000000000001	2.424542510E-3	-1.077625458E-1	4.685187176E-3
13.96	3.160489168E-3	-1.102501032E-1	3.002034321E-3
13.97	3.211918781E-3	-1.148498336E-1	1.860669089E-3
13.98	2.361307005E-3	-1.231973616E-1	1.174176169E-3
13.99	2.420169927E-3	-1.312865425E-1	7.643250606E-4
14.0	3.608847450E-3	-1.393397678E-1	-7.010021691E-4
14.01	4.341024319E-3	-1.447061101E-1	-2.690245676E-3
14.02	3.642873374E-3	-1.459349619E-1	-1.867274386E-3
14.030000000000001	3.220123325E-3	-1.457008468E-1	-2.829507023E-3
14.040000000000001	3.644981990E-3	-1.379575244E-1	-2.493884134E-3
14.05	4.237978021E-3	-1.255511538E-1	-2.857272196E-3
14.06	3.992680207E-3	-1.083149834E-1	-3.156999799E-3
14.07	3.834417181E-3	-8.513448148E-2	-4.253523536E-3
14.08	2.815179977E-3	-6.011582921E-2	-4.768507599E-3
14.09	1.590078279E-3	-3.252662383E-2	-4.674977612E-3
14.1	4.702702261E-4	-3.802355306E-3	-4.461218881E-3
14.11	-8.545848631E-4	2.303702794E-2	-4.345118570E-3
14.120000000000001	-1.796157953E-3	4.662897853E-2	-4.843067056E-3
14.13	-2.293216006E-3	6.763040723E-2	-5.086141139E-3
14.14	-2.950604482E-3	8.687441255E-2	-3.900376052E-3
14.15	-4.411880059E-3	1.019932162E-1	-1.956125013E-3
14.16	-5.216628899E-3	1.155876716E-1	-2.320601511E-3
14.17	-3.987925341E-3	1.269208630E-1	-2.972819376E-3
14.18	-5.397631814E-3	1.336399635E-1	-1.362921762E-3
14.19	-5.192348239E-3	1.414794810E-1	-9.145079185E-4
14.200000000000001	-4.577375719E-3	1.463801930E-1	1.032637366E-3
14.21	-4.978578351E-3	1.507979477E-1	1.490173249E-3
14.22	-4.500635898E-3	1.527679415E-1	2.027407109E-3
14.23	-4.424379481E-3	1.530707291E-1	2.078750052E-3
14.24	-4.150056220E-3	1.507699661E-1	2.039097800E-3
14.25	-3.889666786E-3	1.467006143E-1	2.475846243E-3
14.26	-3.860936453E-3	1.414398774E-1	3.590233755E-3
14.27	-3.333865623E-3	1.348384016E-1	4.907314057E-3
14.280000000000001	-3.285181321E-3	1.272113436E-1	5.039275639E-3
14.290000000000001	-3.491363907E-3	1.197003621E-1	4.254307240E-3
14.3	-3.804434748E-3	1.144069472E-1	4.879359234E-3
14.31	-3.285945048E-3	1.097582658E-1	4.884980154E-3
14.32	-4.049216797E-3	1.107015809E-1	3.446553183E-3
14.33	-1.923165312E-3	1.114811381E-1	3.175518942E-3
14.34	-4.149110827E-3	1.156539539E-1	3.400667910E-3
14.35	-5.510572049E-3	1.234600960E-1	2.949490053E-3
14.36	-5.103364178E-3	1.296181510E-1	5.463108558E-4
14.370000000000001	-4.249288905E-3	1.345116828E-1	3.922333273E-5
14.38	-4.162471934E-3	1.392492397E-1	-7.428499285E-4
14.39	-4.714900094E-3	1.416130374E-1	-2.149406325E-3
14.4	-4.966423479E-3	1.392534052E-1	-2.861428432E-3
14.41	-4.615131149E-3	1.340838156E-1	-2.552921547E-3
14.42	-4.743273193E-3	1.251903483E-1	-2.873400399E-3
14.43	-4.287680080E-3	1.118450602E-1	-3.553130197E-3
14.44	-3.914007274E-3	9.422385632E-2	-3.166231950E-3
14.450000000000001	-3.096261959E-3	7.112553335E-2	-4.100458860E-3
14.46	-2.961875530E-3	4.750550927E-2	-4.223985061E-3
14.47	-1.500205733E-3	2.024311028E-2	-4.883939631E-3
14.48	-2.608232104E-4	-8.436953799E-3	-5.428626108E-3
14.49	5.488003887E-4	-3.559026636E-2	-4.656760263E-3
14.5	1.155503179E-3	-6.089858121E-2	-3.816894210E-3
14.51	1.337412585E-3	-8.536179014E-2	-3.476465994E-3
14.52	2.550515746E-3	-1.068269935E-1	-3.276014811E-3
14.530000000000001	4.169791013E-3	-1.232378834E-1	-3.074452950E-3
14.540000000000001	3.773885751E-3	-1.367899171E-1	-2.354094553E-3
14.55	4.413233335E-3	-1.445749060E-1	-6.896849153E-4
14.56	4.519353448E-3	-1.483693378E-1	-3.052814543E-5
14.57	3.968292211E-3	-1.475077045E-1	-8.554651235E-4
14.58	4.406146491E-3	-1.451111952E-1	-1.111056375E-3
14.59	4.739139842E-3	-1.424113153E-1	1.079953956E-3
14.6	5.201981246E-3	-1.385719444E-1	1.727551048E-4
14.61	4.694983149E-3	-1.339973203E-1	7.513169768E-4
14.620000000000001	4.026330496E-3	-1.304491083E-1	2.282441092E-3
14.63	2.419381244E-3	-1.291920947E-1	3.440586105E-3
14.64	1.298131370E-3	-1.278615044E-1	4.114575245E-3
14.65	1.531210981E-3	-1.269543787E-1	4.293075811E-3
14.66	1.523178464E-3	-1.274285244E-1	4.900299265E-3
14.67	1.113448749E-3	-1.278378979E-1	5.307915640E-3
14.68	1.433505724E-3	-1.269815461E-1	4.701683951E-3
14.69	1.553794611E-3	-1.266050247E-1	4.324369399E-3
14.700000000000001	1.663376595E-3	-1.266843693E-1	3.533631918E-3
14.71	3.099160560E-3	-1.262395897E-1	1.781710044E-3
14.72	3.930162634E-3	-1.271642927E-1	7.994300375E-4
14.73	3.419735441E-3	-1.284964005E-1	1.559953215E-4
14.74	3.461873690E-3	-1.304213444E-1	1.809952688E-3
14.75	2.893968830E-3	-1.315265099E-1	-7.327337740E-4
14.76	4.605288659E-3	-1.328764499E-1	-2.471562078E-3
14.77	4.316610173E-3	-1.338432290E-1	-2.915894275E-3
14.780000000000001	4.495295117E-3	-1.313572964E-1	-2.474054638E-3
14.790000000000001	4.095725850E-3	-1.269930868E-1	-1.966325086E-3
14.8	2.765931568E-3	-1.184117294E-1	-2.823331236E-3
14.81	1.939463194E-3	-1.039571039E-1	-3.625009421E-3
14.82	2.127823690E-3	-8.490086116E-2	-3.521906900E-3
14.83	1.796083460E-3	-6.130705871E-2	-3.782774973E-3
14.84	-3.023248537E-5	-3.550282994E-2	-4.648673576E-3
14.85	-9.213304737E-4	-7.133077631E-3	-4.579329940E-3
14.86	-7.617491332E-4	2.333137052E-2	-4.301032801E-3
14.870000000000001	-1.965232556E-3	5.181589244E-2	-4.306165895E-3
14.88	-1.429001828E-3	7.958941661E-2	-3.920008707E-3
14.89	-3.013006439E-3	1.013881405E-1	-3.809859323E-3
14.9	-4.467703351E-3	1.197360217E-1	-3.145039313E-3
14.91	-5.382131272E-3	1.330737297E-1	-2.175017105E-3
14.92	-6.352054765E-3	1.408796390E-1	-2.248789835E-3
14.93	-4.777489456E-3	1.456877689E-1	5.409282357E-4
14.94	-5.057423980E-3	1.470493352E-1	4.926687949E-4
14.950000000000001	-5.161138536E-3	1.450342472E-1	3.770964732E-4
14.96	-5.093854060E-3	1.412314948E-1	3.509454252E-4
14.97	-4.924919000E-3	1.363632139E-1	6.146363737E-4
14.98	-4.318706682E-3	1.309651478E-1	2.161133719E-3
14.99	-4.490416528E-3	1.265037488E-1	2.548028734E-3
15.0	-4.611070202E-3	1.218393972E-1	2.680474116E-3
15.01	-4.889293303E-3	1.187252291E-1	3.673470450E-3
15.02	-4.029679587E-3	1.178158196E-1	3.886521292E-3
15.030000000000001	-2.324602346E-3	1.170115497E-1	4.878641646E-3
15.040000000000001	-3.289538050E-3	1.180729485E-1	5.561382998E-3
15.05	-3.017794182E-3	1.203751167E-1	4.506657553E-3
15.06	-3.587288890E-3	1.248449949E-1	2.349843487E-3
15.07	-3.505916600E-3	1.297272012E-1	2.831344389E-3
15.08	-3.220107972E-3	1.345083530E-1	2.304575867E-3
15.09	-3.532223439E-3	1.379987533E-1	2.782885835E-3
15.1	-4.128393948E-3	1.400744743E-1	2.075194067E-3
15.11	-4.576028881E-3	1.414355883E-1	7.360182553E-4
15.120000000000001	-4.603139193E-3	1.419766365E-1	-5.248218467E-5
15.13	-4.744395059E-3	1.402452880E-1	-1.081337678E-3
15.14	-5.356181864E-3	1.351528291E-1	-1.279991395E-3
15.15	-4.078904381E-3	1.278689703E-1	-9.300489900E-4
15.16	-4.044849422E-3	1.188100450E-1	-1.824898381E-3
15.17	-4.261051734E-3	1.071574619E-1	-2.384753236E-3
15.18	-3.489739587E-3	9.360181413E-2	-2.717291879E-3
15.19	-2.991744866E-3	7.683110200E-2	-3.472868967E-3
15.200000000000001	-1.732285043E-3	5.951885775E-2	-3.798577403E-3
15.21	-8.776440946E-4	3.914571581E-2	-4.257139457E-3
15.22	-4.479584259E-4	1.713991589E-2	-4.587160864E-3
15.23	5.640025667E-4	-7.183795444E-3	-4.328125647E-3
15.24	1.038330649E-3	-3.308156012E-2	-4.228893208E-3
15.25	1.356223062E-3	-5.847258973E-2	-4.151472542E-3
15.26	3.279530714E-3	-8.258940257E-2	-3.070036936E-3
15.27	3.191424692E-3	-1.067520706E-1	-2.390887308E-3
15.280000000000001	4.564277827E-3	-1.259659766E-1	-2.099707917E-3
15.290000000000001	3.795289401E-3	-1.405060411E-1	-1.773893870E-3
15.3	5.270932028E-3	-1.514137069E-1	-7.337828157E-4
15.31	3.678808236E-3	-1.550747328E-1	-9.957657778E-4
15.32	4.580599801E-3	-1.544963375E-1	-2.256706420E-4
15.33	4.114436740E-3	-1.504435650E-1	-3.234358309E-4
15.34	3.593458543E-3	-1.427267686E-1	7.913331511E-4
15.35	3.329189850E-3	-1.334106234E-1	1.671649600E-3
15.36	2.544759294E-3	-1.242134476E-1	2.024009508E-3
15.370000000000001	2.151231275E-3	-1.161601903E-1	2.735291219E-3
15.38	1.781539282E-3	-1.102810560E-1	3.570982181E-3
15.39	2.195599746E-3	-1.070405217E-1	4.054118172E-3
15.4	2.902211675E-3	-1.076257270E-1	4.175250792E-3
15.41	1.675415943E-3	-1.115326206E-1	4.521992636E-3
15.42	2.025927017E-3	-1.179973403E-1	5.210240317E-3
15.43	2.034053907E-3	-1.249863568E-1	3.154088613E-3
15.44	2.456453452E-3	-1.330768878E-1	2.724385402E-3
15.450000000000001	3.171696673E-3	-1.403333346E-1	4.362080527E-3
15.46	2.632474021E-3	-1.456243353E-1	2.664984855E-3
15.47	4.221023717E-3	-1.496326647E-1	1.861111017E-3
15.48	4.367839182E-3	-1.510815779E-1	8.659295561E-4
15.49	3.365339050E-3	-1.499708549E-1	1.109574270E-3
15.5	4.449375409E-3	-1.467456498E-1	-8.342773791E-5
15.51	4.274183171E-3	-1.413039188E-1	-1.010052818E-3
15.52	4.237807742E-3	-1.335587600E-1	-1.395332436E-3
15.530000000000001	3.600952758E-3	-1.232474365E-1	-1.687570319E-3
15.540000000000001	3.559365133E-3	-1.106335536E-1	-1.827227640E-3
15.55	4.362667883E-3	-9.618368305E-2	-2.527434397E-3
15.56	2.877380591E-3	-8.017266420E-2	-3.701503083E-3
15.57	1.449957374E-3	-6.110396118E-2	-3.748628413E-3
15.58	1.205693990E-3	-4.108216376E-2	-4.338508365E-3
15.59	-2.504089939E-4	-1.880592728E-2	-5.051566562E-3
15.6	-1.089025130E-3	4.550345017E-3	-4.350878763E-3
15.610000000000001	-2.646212866E-3	2.929681443E-2	-5.068232584E-3
15.620000000000001	-3.543562283E-3	5.148818694E-2	-2.862669992E-3
15.63	-2.342137305E-3	7.300314322E-2	-3.953370724E-3
15.64	-3.095043727E-3	9.332228614E-2	-3.590915803E-3
15.65	-4.011853912E-3	1.100141617E-1	-2.300834474E-3
15.66	-3.835396615E-3	1.240142331E-1	-1.374027320E-3
15.67	-4.037643049E-3	1.345734929E-1	-9.784819900E-4
15.68	-4.646612064E-3	1.410356031E-1	-9.778160761E-4
15.69	-5.172384372E-3	1.451215848E-1	-1.009337473E-3
15.700000000000001	-5.377328386E-3	1.460145291E-1	1.835565092E-4
15.71	-5.257486792E-3	1.435014446E-1	1.655888698E-3
15.72	-4.784201809E-3	1.391825976E-1	1.157310743E-3
15.73	-3.951320193E-3	1.330724942E-1	1.174435534E-3
15.74	-4.178739474E-3	1.256045295E-1	2.489499868E-3
15.75	-3.674762537E-3	1.188399633E-1	3.932068777E-3
15.76	-2.270803442E-3	1.123995503E-1	4.347680044E-3
15.77	-2.867438486E-3	1.080583891E-1	4.782555533E-3
15.780000000000001	-1.964005437E-3	1.068711522E-1	4.437201509E-3
15.790000000000001	-2.562105624E-3	1.078273121E-1	3.946306721E-3
15.8	-3.676891544E-3	1.110776095E-1	4.261736614E-3
15.81	-4.000665709E-3	1.174767173E-1	4.310445824E-3
15.82	-4.040881292E-3	1.262803816E-1	3.581869460E-3
15.83	-4.233665457E-3	1.366938027E-1	2.344639731E-3
15.84	-4.327518036E-3	1.467157444E-1	1.341717673E-3
15.85	-4.447611561E-3	1.542846831E-1	1.094468069E-3
15.860000000000001	-5.136931755E-3	1.592207675E-1	7.617161798E-4
15.870000000000001	-5.423042532E-3	1.606381175E-1	-2.136726290E-4
15.88	-5.401874089E-3	1.575181690E-1	-5.712969227E-4
15.89	-3.964020116E-3	1.488924556E-1	-7.062699818E-4
15.9	-3.288385499E-3	1.346309505E-1	-1.661438128E-3
15.91	-3.828949323E-3	1.175691088E-1	-2.241065073E-3
15.92	-4.438034286E-3	9.982616506E-2	-2.306201029E-3
15.93	-2.587651557E-3	7.845689029E-2	-3.435714051E-3
15.94	-2.224843488E-3	5.522301859E-2	-3.815887365E-3
15.950000000000001	-1.401011872E-3	3.366329688E-2	-5.058761074E-3
15.96	-1.031805231E-3	1.197571660E-2	-4.585479437E-3
15.97	3.221779471E-5	-9.683620870E-3	-4.861043058E-3
15.98	8.317348376E-4	-3.000636314E-2	-4.990553065E-3
15.99	1.509409288E-3	-4.858917510E-2	-4.288106519E-3
16.0	2.731677027E-3	-6.578582816E-2	-3.566901837E-3
16.01	3.064717949E-3	-8.247042892E-2	-3.131346449E-3
16.02	4.061381677E-3	-9.863878884E-2	-2.149130869E-3
16.03	3.477697404E-3	-1.117399977E-1	-3.987250810E-3
16.04	3.707025761E-3	-1.242755058E-1	-3.262148261E-3
16.05	4.411071567E-3	-1.331905533E-1	-1.779496793E-3
16.06	4.698286865E-3	-1.393263033E-1	-1.403254633E-3
16.07	4.044909040E-3	-1.425660626E-1	-7.199163912E-4
16.080000000000002	3.868695954E-3	-1.429274980E-1	4.620833417E-5
16.09	3.472847777E-3	-1.403648238E-1	7.096410836E-4
16.1	2.148394123E-3	-1.350123185E-1	1.713863491E-3
16.11	1.563713773E-3	-1.287758267E-1	2.718951066E-3
16.12	2.345461569E-3	-1.223112397E-1	2.925657258E-3
16.13	2.755488018E-3	-1.156393520E-1	2.773678732E-3
16.14	2.494615624E-3	-1.112340156E-1	4.137413931E-3
16.15	2.279973368E-3	-1.096773554E-1	3.775083867E-3
16.16	1.794057567E-3	-1.101171240E-1	3.051317364E-3
16.17	3.021340231E-3	-1.133861104E-1	3.256962729E-3
16.18	1.141631171E-3	-1.181539696E-1	2.573885254E-3
16.19	2.181633736E-3	-1.267280271E-1	2.778077321E-3
16.2	3.509374420E-3	-1.348136465E-1	3.270123434E-3
16.21	2.971540848E-3	-1.428564445E-1	1.872284842E-3
16.22	3.794536166E-3	-1.503665632E-1	1.095185142E-3
16.23	4.401844294E-3	-1.557978771E-1	3.787830649E-4
16.240000000000002	4.054739821E-3	-1.589049249E-1	-1.672660521E-4
16.25	3.928728011E-3	-1.571998303E-1	-6.693219203E-4
16.26	4.291551998E-3	-1.521248988E-1	-1.208513874E-3
16.27	4.231556903E-3	-1.439970324E-1	-1.596584370E-3
16.28	3.765457580E-3	-1.317687956E-1	-1.826273966E-3
16.29	3.663752387E-3	-1.140398256E-1	-2.282511759E-3
16.3	2.240891662E-3	-9.385356548E-2	-3.537132211E-3
16.31	2.287709386E-3	-7.083386939E-2	-3.667973805E-3
16.32	2.307868162E-3	-4.576811291E-2	-4.172732401E-3
16.330000000000002	8.633202748E-4	-2.055239265E-2	-4.171790355E-3
16.34	-6.437935626E-4	4.714319317E-3	-5.309129891E-3
16.35	-1.873940369E-3	2.954657845E-2	-4.982344675E-3
16.36	-2.345885476E-3	5.255926274E-2	-4.362723398E-3
16.37	-1.495402500E-3	7.055112846E-2	-4.310011850E-3
16.38	-2.461140113E-3	8.617311072E-2	-3.925259144E-3
16.39	-3.798460742E-3	9.861009720E-2	-2.379181780E-3
16.4	-4.149015225E-3	1.078869757E-1	-1.950984768E-3
16.41	-3.724561920E-3	1.152130231E-1	-2.176386881E-3
16.42	-3.545858552E-3	1.202272495E-1	-1.262328195E-3
16.43	-3.934897204E-3	1.230442890E-1	-1.255050957E-3
16.44	-4.328348171E-3	1.244055770E-1	-1.770717049E-3
16.45	-4.504658585E-3	1.255543698E-1	-7.705755921E-4
16.46	-3.867547215E-3	1.263473069E-1	1.226675826E-3
16.47	-3.777234843E-3	1.247249087E-1	1.267788840E-3
16.48	-4.858455648E-3	1.247517189E-1	2.866146994E-3
16.490000000000002	-2.903830101E-3	1.256097992E-1	2.775261831E-3
16.5	-3.400482583E-3	1.238180751E-1	3.283212976E-3
16.51	-2.727276130E-3	1.215580548E-1	3.842257419E-3
16.52	-3.805135896E-3	1.199560458E-1	4.272756260E-3
16.53	-3.461497701E-3	1.182759316E-1	4.237926192E-3
16.54	-3.053466293E-3	1.181436223E-1	3.939570380E-3
16.55	-3.041927805E-3	1.196244939E-1	3.522026968E-3
16.56	-3.783939173E-3	1.228298482E-1	3.417065573E-3
16.57	-4.365251651E-3	1.279905971E-1	3.030579519E-3
16.580000000000002	-3.923644507E-3	1.334688003E-1	1.180661294E-3
16.59	-4.806406991E-3	1.398352178E-1	1.864069013E-5
16.6	-5.577938127E-3	1.472241958E-1	6.235649961E-4
16.61	-4.578874367E-3	1.523592687E-1	8.500828304E-4
16.62	-5.426359763E-3	1.560822447E-1	4.557351591E-4
16.63	-4.443781664E-3	1.553544005E-1	-2.175589083E-4
16.64	-5.011685779E-3	1.502183636E-1	-3.381987093E-4
16.65	-5.538608844E-3	1.406240031E-1	-2.217015033E-3
16.66	-2.923336880E-3	1.237164873E-1	-2.776167938E-3
16.67	-2.167657827E-3	1.046758597E-1	-3.638487309E-3
16.68	-2.203903117E-3	8.038224888E-2	-3.602270803E-3
16.69	-1.529138460E-3	5.377425497E-2	-3.859908142E-3
16.7	-9.824927360E-4	2.662509262E-2	-4.776298421E-3
16.71	-9.515021645E-4	-6.471789642E-4	-5.376536417E-3
16.72	-1.085518204E-4	-2.645246036E-2	-5.118777323E-3
16.73	1.579494280E-3	-4.883530893E-2	-4.540321055E-3
16.740000000000002	2.120775369E-3	-6.868769461E-2	-3.591765859E-3
16.75	2.083684470E-3	-8.543948140E-2	-2.781769046E-3
16.76	3.091867185E-3	-9.852387276E-2	-2.749064739E-3
16.77	3.947417597E-3	-1.085009853E-1	-3.225638437E-3
16.78	5.206767628E-3	-1.159345070E-1	-2.261187601E-3
16.79	3.067308823E-3	-1.204049627E-1	-2.582099008E-3
16.8	4.654702515E-3	-1.220888344E-1	-7.798710155E-4
16.81	2.954054959E-3	-1.232811426E-1	4.521947307E-6
16.82	3.601659312E-3	-1.217709275E-1	4.754420202E-5
16.830000000000002	3.617041445E-3	-1.197675306E-1	8.011340231E-4
16.84	3.047580729E-3	-1.182415573E-1	1.095440817E-3
16.85	2.455426394E-3	-1.167208579E-1	1.466417076E-3
16.86	2.107645158E-3	-1.162190226E-1	2.409548244E-3
16.87	2.018073658E-3	-1.169130532E-1	3.694394064E-3
16.88	1.967185589E-3	-1.175849154E-1	4.812790606E-3
16.89	1.686163547E-3	-1.185186172E-1	4.614020523E-3
16.9	1.375474276E-3	-1.213003617E-1	4.113146556E-3
16.91	1.181635568E-3	-1.247861520E-1	4.715645743E-3
16.92	2.001322081E-3	-1.285247143E-1	4.052395585E-3
16.93	2.434981024E-3	-1.335451246E-1	2.483077580E-3
16.94	3.918687413E-3	-1.387292186E-1	1.196930838E-3
16.95	3.973554962E-3	-1.434327478E-1	2.984933938E-3
16.96	3.740088140E-3	-1.469456174E-1	1.285949142E-3
16.97	4.427529606E-3	-1.498550947E-1	1.430917376E-3
16.98	4.187513979E-3	-1.505108873E-1	6.059733878E-4
16.990000000000002	4.092977851E-3	-1.499373980E-1	1.489105206E-4
17.0	3.717530053E-3	-1.471085897E-1	-4.086410461E-4
17.01	3.792460038E-3	-1.418275737E-1	-1.295116775E-3
17.02	4.644402574E-3	-1.343495981E-1	-1.883930407E-3
17.03	3.267366513E-3	-1.237033184E-1	-2.116163299E-3
17.04	3.292363296E-3	-1.080365101E-1	-2.379061746E-3
17.05	1.506309789E-3	-9.241893775E-2	-3.653273018E-3
17.06	7.436026611E-4	-6.987495881E-2	-3.289117931E-3
17.07	7.215653456E-4	-4.602132358E-2	-4.397418070E-3
17.080000000000002	1.751132406E-4	-2.004385270E-2	-3.959776926E-3
17.09	-9.556106277E-4	8.001872884E-3	-4.213700735E-3
17.1	-2.639424683E-3	3.452727918E-2	-4.687406131E-3
17.11	-2.922845724E-3	5.883056758E-2	-4.039199476E-3
17.12	-2.563029078E-3	8.053298084E-2	-3.454669943E-3
17.13	-3.037821869E-3	9.840319701E-2	-3.283815537E-3
17.14	-4.166479842E-3	1.109827837E-1	-2.970138931E-3
17.150000000000002	-4.604096403E-3	1.204505762E-1	-2.633711862E-3
17.16	-4.177736928E-3	1.237549671E-1	-2.039839792E-3
17.17	-5.760406939E-3	1.239913054E-1	-2.149277055E-3
17.18	-5.597534619E-3	1.207809005E-1	-4.341978872E-4
17.19	-4.070285549E-3	1.164007386E-1	-8.487005709E-4
17.2	-3.810135161E-3	1.126101108E-1	-1.759564742E-3
17.21	-3.738431838E-3	1.077092054E-1	3.125246760E-4
17.22	-2.972208550E-3	1.049763807E-1	1.721184683E-3
17.23	-3.245339682E-3	1.033644065E-1	2.213089895E-3
17.240000000000002	-3.280423474E-3	1.059943155E-1	2.353825390E-3
17.25	-2.910849158E-3	1.095942828E-1	2.912515805E-3
17.26	-2.571817886E-3	1.147467899E-1	3.741954524E-3
17.27	-2.880079737E-3	1.205630168E-1	4.210408163E-3
17.28	-3.613854339E-3	1.262202247E-1	4.347336722E-3
17.29	-4.123340537E-3	1.325930198E-1	4.445431662E-3
17.3	-4.859694655E-3	1.382045268E-1	3.270451521E-3
17.31	-4.733316156E-3	1.430147993E-1	2.458806525E-3
17.32	-4.275142013E-3	1.470642224E-1	2.727949382E-3
17.330000000000002	-4.477913209E-3	1.492289741E-1	1.737842284E-3
17.34	-6.078540375E-3	1.514892062E-1	1.527378988E-3
17.35	-4.831708784E-3	1.527549626E-1	9.190999571E-4
17.36	-4.641107695E-3	1.509826452E-1	3.755510026E-4
17.37	-4.186547389E-3	1.479498037E-1	2.026872160E-4
17.38	-4.549890747E-3	1.416463598E-1	-4.140539644E-4
17.39	-5.618221771E-3	1.337054556E-1	-1.004644817E-3
17.400000000000002	-4.666507715E-3	1.217885455E-1	-1.305155418E-3
17.41	-4.647575222E-3	1.080637955E-1	-2.364087181E-3
17.42	-3.889721826E-3	9.019682201E-2	-3.885232917E-3
17.43	-2.228474011E-3	6.858604632E-2	-4.617487955E-3
17.44	-1.194178750E-3	4.561588488E-2	-4.344508219E-3
17.45	-5.087268888E-4	2.301444458E-2	-4.297524738E-3
17.46	2.231493464E-4	-5.206533613E-4	-4.359268853E-3
17.47	1.769912677E-3	-2.601527280E-2	-4.520420100E-3
17.48	1.202720411E-3	-4.787333170E-2	-5.150097304E-3
17.490000000000002	1.325287829E-3	-6.845652260E-2	-4.152705240E-3
17.5	2.232211242E-3	-8.812153734E-2	-5.122782755E-3
17.51	3.659155378E-3	-1.019696037E-1	-3.825118112E-3
17.52	1.292254775E-3	-1.136007263E-1	-1.428835981E-3
17.53	1.681949347E-3	-1.199921165E-1	-2.378071904E-3
17.54	2.302594960E-3	-1.242935864E-1	-1.877735726E-3
17.55	3.199357939E-3	-1.251331716E-1	-1.686628561E-3
17.56	3.536572466E-3	-1.232850877E-1	-1.214873361E-3
17.57	3.159508134E-3	-1.191054306E-1	-4.840079933E-4
17.580000000000002	2.490061660E-3	-1.143500337E-1	2.891591976E-5
17.59	2.230678955E-3	-1.096157304E-1	1.014264059E-3
17.6	2.723889327E-3	-1.052310157E-1	2.830515251E-3
17.61	2.781674044E-3	-1.020400584E-1	3.601153247E-3
17.62	1.796851413E-3	-1.006168487E-1	3.178493226E-3
17.63	2.907771622E-4	-1.036460808E-1	3.692566029E-3
17.64	1.335822204E-3	-1.084818283E-1	3.921578360E-3
17.650000000000002	2.496531019E-3	-1.155543009E-1	4.365036917E-3
17.66	1.953526000E-3	-1.255860011E-1	4.032681418E-3
17.67	2.592078559E-3	-1.359977160E-1	4.068667571E-3
17.68	3.472027763E-3	-1.465424646E-1	2.868869637E-3
17.69	4.084539491E-3	-1.547674711E-1	2.477505361E-3
17.7	3.878231194E-3	-1.619672616E-1	1.724891504E-3
17.71	3.818704943E-3	-1.657145540E-1	1.785023642E-3
17.72	3.444443802E-3	-1.653956405E-1	1.236832571E-3
17.73	4.418989277E-3	-1.619580127E-1	8.290657834E-4
17.740000000000002	5.012127564E-3	-1.555939841E-1	1.902225091E-4
17.75	4.648761957E-3	-1.462061724E-1	-6.180969989E-4
17.76	4.300869675E-3	-1.335725977E-1	-6.883980746E-4
17.77	3.592500547E-3	-1.192655126E-1	-1.185156870E-3
17.78	3.824068318E-3	-1.027633325E-1	-2.414233255E-3
17.79	3.161347733E-3	-8.566906010E-2	-2.183802455E-3
17.8	1.489076493E-3	-6.793415907E-2	-3.584847503E-3
17.81	1.300387988E-3	-4.856454231E-2	-3.585650492E-3
17.82	1.431882875E-3	-2.960947209E-2	-3.719138394E-3
17.830000000000002	-5.885747652E-4	-7.799996073E-3	-4.192190878E-3
17.84	-1.163677672E-3	1.258574790E-2	-4.492950227E-3
17.85	-1.455743819E-3	3.364229232E-2	-4.178711949E-3
17.86	-2.198402872E-3	5.438766442E-2	-3.777949381E-3
17.87	-2.654641559E-3	7.347903214E-2	-3.572070169E-3
17.88	-3.879891339E-3	8.972802479E-2	-3.219490381E-3
17.89	-4.097328808E-3	1.030623130E-1	-2.905649317E-3
17.900000000000002	-4.142860496E-3	1.125879073E-1	-2.697697902E-3
17.91	-4.352632905E-3	1.187273538E-1	-2.221014228E-3
17.92	-3.402016153E-3	1.222492965E-1	-1.280200052E-3
17.93	-2.624379387E-3	1.225331577E-1	-2.906866548E-4
17.94	-3.896116283E-3	1.181619920E-1	-1.467266362E-4
17.95	-3.357916291E-3	1.126994701E-1	1.234407290E-3
17.96	-4.073157003E-3	1.085870346E-1	2.127812338E-3
17.97	-3.189591555E-3	1.042723113E-1	2.533739912E-3
17.98	-3.071965390E-3	1.006925469E-1	3.041957709E-3
17.990000000000002	-2.567683449E-3	9.928124748E-2	3.936856222E-3
18.0	-4.252052894E-3	1.001596268E-1	3.367436362E-3
18.01	-3.839043982E-3	1.043801232E-1	3.902024733E-3
18.02	-4.243506896E-3	1.131023187E-1	4.186949911E-3
18.03	-4.050591895E-3	1.201366052E-1	3.501576739E-3
18.04	-3.485371678E-3	1.290300296E-1	3.067408519E-3
18.05	-4.051287514E-3	1.390845747E-1	2.838856586E-3
18.06	-4.406866839E-3	1.482655347E-1	2.448241324E-3
18.07	-4.738513705E-3	1.569479200E-1	2.153876753E-3
18.080000000000002	-5.212381216E-3	1.630945683E-1	1.825120340E-3
18.09	-4.836400484E-3	1.661762437E-1	1.630955490E-3
18.1	-6.400269025E-3	1.661687001E-1	1.950103435E-3
18.11	-5.614066710E-3	1.635157665E-1	6.204347136E-4
18.12	-4.815640132E-3	1.567944104E-1	-4.003662132E-4
18.13	-5.626881510E-3	1.447900049E-1	-1.647311209E-3
18.14	-4.113763859E-3	1.295430001E-1	-1.868960428E-3
18.150000000000002	-4.084651163E-3	1.120178302E-1	-1.734702158E-3
18.16	-3.631381647E-3	9.239210105E-2	-2.367312782E-3
18.17	-2.914790597E-3	6.924648306E-2	-2.536139434E-3
18.18	-2.810183436E-3	4.685983973E-2	-3.193011674E-3
18.19	-1.721414900E-3	2.457303103E-2	-3.973042646E-3
18.2	-1.029341450E-5	1.815591379E-3	-4.468638468E-3
18.21	1.060010651E-3	-1.904116087E-2	-4.701315927E-3
18.22	1.628438542E-3	-3.691040159E-2	-4.596331574E-3
18.23	1.357535761E-3	-5.308752103E-2	-4.105001920E-3
18.240000000000002	1.041116403E-3	-6.749035642E-2	-3.492036422E-3
18.25	2.474792474E-3	-7.967080309E-2	-3.873992210E-3
18.26	3.517418513E-3	-9.107599057E-2	-3.231360483E-3
18.27	2.558780620E-3	-9.880446591E-2	-2.158762979E-3
18.28	3.365147272E-3	-1.063203374E-1	-2.141596842E-3
18.29	2.992421664E-3	-1.109652242E-1	-2.803666693E-3
18.3	2.879509474E-3	-1.132142766E-1	-5.460985878E-4
18.31	2.860603969E-3	-1.147509187E-1	-8.289408852E-4
18.32	2.153230815E-3	-1.151038620E-1	-7.450405073E-4
18.330000000000002	1.152905235E-3	-1.154093138E-1	7.001046660E-4
18.34	1.659518490E-3	-1.134523956E-1	1.759884787E-3
18.35	1.795008230E-3	-1.102240824E-1	2.012288650E-3
18.36	1.507707118E-3	-1.081003987E-1	2.371040970E-3
18.37	1.969303233E-3	-1.067058340E-1	2.715965277E-3
18.38	2.037023931E-3	-1.071176615E-1	3.179030279E-3
18.39	1.059559632E-3	-1.101652630E-1	3.952147251E-3
18.400000000000002	1.931281988E-3	-1.140434073E-1	3.852021734E-3
18.41	2.393101314E-3	-1.217169682E-1	2.372048331E-3
18.42	3.647662858E-3	-1.312095205E-1	3.506920767E-3
18.43	4.283563206E-3	-1.421002547E-1	1.208470297E-3
18.44	4.998741631E-3	-1.516596182E-1	2.638872777E-3
18.45	3.817736022E-3	-1.614810581E-1	2.167439035E-3
18.46	4.777840976E-3	-1.686989621E-1	1.327573540E-3
18.47	4.767633810E-3	-1.712517421E-1	2.199256687E-3
18.48	5.137814591E-3	-1.700553290E-1	1.809151602E-3
18.490000000000002	5.244883309E-3	-1.645616976E-1	-4.772634981E-4
18.5	4.239699991E-3	-1.542932257E-1	-1.164188508E-3
18.51	3.492405468E-3	-1.386490536E-1	-1.613265241E-3
18.52	3.089087708E-3	-1.200670359E-1	-2.436190220E-3
18.53	2.678826659E-3	-9.919795093E-2	-2.146949221E-3
18.54	2.202331284E-3	-7.588831939E-2	-1.952292490E-3
18.55	8.688566185E-4	-5.164425291E-2	-4.432665872E-3
18.56	9.895430928E-4	-2.843580859E-2	-4.258568930E-3
18.57	2.079758363E-4	-6.216134210E-3	-3.383874165E-3
18.580000000000002	-5.661314630E-4	1.615073137E-2	-3.850009012E-3
18.59	-2.240557683E-3	3.245699081E-2	-3.427124612E-3
18.6	-2.193531181E-3	4.970778090E-2	-3.247507065E-3
18.61	-2.866288414E-3	6.380051575E-2	-3.079669046E-3
18.62	-2.729149153E-3	7.550797306E-2	-3.988844919E-3
18.63	-2.234962453E-3	8.556262062E-2	-3.918671134E-3
18.64	-3.285306517E-3	9.317579767E-2	-3.272269485E-3
18.650000000000002	-3.235230485E-3	9.822341794E-2	-2.740586665E-3
18.66	-4.106318696E-3	1.015962710E-1	-1.790135067E-3
18.67	-4.871279156E-3	1.041429821E-1	-1.614552446E-3
18.68	-3.665137774E-3	1.054681732E-1	-2.155670418E-3
18.69	-3.029669514E-3	1.057266291E-1	-6.989164827E-4
18.7	-3.160871854E-3	1.042952832E-1	1.520646048E-3
18.71	-2.930042413E-3	1.045677429E-1	1.072597243E-3
18.72	-2.676089999E-3	1.054628494E-1	2.549403911E-3
18.73	-2.952673128E-3	1.060434302E-1	2.871964407E-3
18.740000000000002	-2.817393866E-3	1.077765002E-1	3.766813798E-3
18.75	-2.410351571E-3	1.119185108E-1	2.924905748E-3
18.76	-2.994809439E-3	1.160619172E-1	4.047043753E-3
18.77	-3.054952612E-3	1.210769089E-1	3.868134451E-3
18.78	-4.333812965E-3	1.270809003E-1	2.944000227E-3
18.79	-4.273205440E-3	1.327212879E-1	3.217993925E-3
18.8	-4.144783516E-3	1.398817458E-1	3.036269369E-3
18.81	-5.007973175E-3	1.476079045E-1	2.991507390E-3
18.82	-5.723242154E-3	1.544643363E-1	2.796719504E-3
18.830000000000002	-5.723625114E-3	1.586947926E-1	1.917546225E-3
18.84	-5.576453879E-3	1.614114335E-1	1.477901653E-3
18.85	-5.061721797E-3	1.638993376E-1	1.215135910E-3
18.86	-5.379063015E-3	1.618656606E-1	7.767297177E-4
18.87	-5.610752336E-3	1.552362654E-1	-6.615582683E-4
18.88	-4.179460397E-3	1.460687359E-1	-1.491286325E-3
18.89	-3.706366410E-3	1.309689840E-1	-1.428057718E-3
18.900000000000002	-3.502794949E-3	1.131960528E-1	-1.161475051E-3
18.91	-2.991552065E-3	9.075347417E-2	-3.324288238E-3
18.92	-3.561832568E-3	6.590952318E-2	-4.352147213E-3
18.93	-1.542139527E-3	4.026192928E-2	-4.150769694E-3
18.94	-9.909397287E-4	1.429605906E-2	-4.623366187E-3
18.95	-6.076946758E-4	-1.145096757E-2	-4.112231302E-3
18.96	5.495663084E-4	-3.464618541E-2	-3.662535715E-3
18.97	8.656284826E-4	-5.354014180E-2	-3.669633050E-3
18.98	1.530790366E-3	-6.837377349E-2	-3.434070674E-3
18.990000000000002	2.786246651E-3	-8.003412309E-2	-3.777761524E-3
19.0	2.851892823E-3	-8.822429277E-2	-4.270779498E-3
19.01	2.077737773E-3	-9.377294130E-2	-3.595161488E-3
19.02	2.862803665E-3	-9.547638650E-2	-3.627895017E-3
19.03	8.339972890E-4	-9.671576418E-2	-2.954508829E-3
19.04	2.413213412E-3	-9.682686128E-2	-6.006498812E-4
19.05	4.024989317E-3	-9.620819487E-2	-5.020399568E-4
19.06	1.130219187E-3	-9.637469559E-2	-7.734433779E-4
19.07	1.900452066E-3	-9.701069167E-2	3.573060230E-4
19.080000000000002	1.690555986E-3	-9.886911288E-2	1.694957439E-3
19.09	6.624829164E-4	-1.015265944E-1	2.032908204E-3
19.1	1.198749308E-3	-1.053011253E-1	2.632654609E-3
19.11	1.722990483E-3	-1.098652424E-1	3.595240971E-3
19.12	1.050643274E-3	-1.144658891E-1	4.381548372E-3
19.13	1.387532057E-3	-1.193014050E-1	4.783566706E-3
19.14	1.032245929E-3	-1.250107119E-1	4.180630349E-3
19.150000000000002	1.481389413E-3	-1.297174493E-1	3.142044974E-3
19.16	3.922077968E-3	-1.364255579E-1	4.271557996E-3
19.17	3.573115340E-3	-1.424336351E-1	2.548583398E-3
19.18	4.459002906E-3	-1.487078686E-1	2.745430521E-3
19.19	5.135614753E-3	-1.546874355E-1	1.843083602E-3
19.2	5.356931845E-3	-1.594787113E-1	1.557972861E-3
19.21	5.141836787E-3	-1.622341505E-1	2.346165610E-3
19.22	5.211944034E-3	-1.625235381E-1	2.489940580E-3
19.23	4.874296331E-3	-1.606842164E-1	1.108483249E-3
19.240000000000002	3.835167186E-3	-1.561517376E-1	-5.338636902E-4
19.25	3.524899011E-3	-1.463887055E-1	-1.023355892E-3
19.26	4.368796954E-3	-1.322901575E-1	-1.072356272E-3
19.27	3.242755840E-3	-1.154815308E-1	-2.569720316E-3
19.28	2.317136008E-3	-9.749358560E-2	-2.467659288E-3
19.29	1.775457165E-3	-7.435612134E-2	-2.363039618E-3
19.3	6.989644564E-4	-5.044829942E-2	-4.115321207E-3
19.31	9.014093823E-4	-2.700728027E-2	-4.223091257E-3
19.32	-1.052070149E-3	-2.664805833E-3	-3.451964932E-3
19.330000000000002	-1.010686746E-3	2.073284991E-2	-4.350459146E-3
19.34	-1.626859000E-3	4.165893935E-2	-3.707129526E-3
19.35	-2.077664834E-3	5.891300962E-2	-3.654454928E-3
19.36	-3.113313197E-3	7.330407638E-2	-3.609776396E-3
19.37	-3.115366273E-3	8.523656796E-2	-3.341147057E-3
19.38	-3.261734679E-3	9.320510054E-2	-2.591655011E-3
19.39	-3.485363918E-3	9.770793915E-2	-2.242824931E-3
19.400000000000002	-2.908637740E-3	9.899653496E-2	-2.655610769E-3
19.41	-2.755198469E-3	9.832050405E-2	-2.487799692E-3
19.42	-3.247061660E-3	9.614426575E-2	-1.787039804E-3
19.43	-2.577134133E-3	9.346990096E-2	-8.595558402E-4
19.44	-2.612343907E-3	9.123565434E-2	3.610795192E-4
19.45	-2.243030658E-3	8.882624708E-2	2.393464567E-4
19.46	-2.313981433E-3	8.962372425E-2	7.435294172E-4
19.47	-2.826150007E-3	9.206340618E-2	2.559157234E-3
19.48	-3.729542782E-3	9.829464041E-2	2.022240591E-3
19.490000000000002	-2.557341149E-3	1.047637709E-1	3.347161246E-3
19.5	-3.700660912E-3	1.141973434E-1	2.965159754E-3
19.51	-3.710927774E-3	1.239037447E-1	3.054900790E-3
19.52	-3.653715009E-3	1.335603334E-1	3.775273917E-3
19.53	-4.307189127E-3	1.426884305E-1	3.943578134E-3
19.54	-5.196709027E-3	1.505853423E-1	3.354237509E-3
19.55	-5.226397505E-3	1.570165571E-1	2.729618979E-3
19.56	-4.906383280E-3	1.619450330E-1	2.165212305E-3
19.57	-5.344900034E-3	1.635336370E-1	2.020843722E-3
19.580000000000002	-4.965300195E-3	1.624795466E-1	2.756376566E-3
19.59	-4.347805260E-3	1.607085572E-1	1.389642582E-3
19.6	-4.693735232E-3	1.573032936E-1	1.727459860E-3
19.61	-5.929216642E-3	1.483285519E-1	1.450309959E-3
19.62	-5.688022138E-3	1.396133740E-1	1.280817836E-4
19.63	-4.947329452E-3	1.278988536E-1	-2.494170236E-3
19.64	-3.352408101E-3	1.141419633E-1	-2.550437021E-3
19.650000000000002	-3.147329129E-3	9.861322172E-2	-2.981175075E-3
19.66	-2.771925290E-3	7.898002981E-2	-2.947297833E-3
19.67	-2.419079949E-3	5.854814314E-2	-2.690057893E-3
19.68	-1.711223849E-3	3.618587014E-2	-3.495139558E-3
19.69	-4.418246352E-4	1.196834835E-2	-4.222724008E-3
19.7	1.013275246E-3	-1.166184820E-2	-3.683592844E-3
19.71	1.889454890E-3	-3.247953168E-2	-3.410601131E-3
19.72	2.142569693E-3	-5.116479709E-2	-3.695373610E-3
19.73	2.148932676E-3	-6.811003540E-2	-3.906168942E-3
19.740000000000002	2.057284767E-3	-8.132945277E-2	-3.309391983E-3
19.75	2.645929316E-3	-9.232097067E-2	-3.888346720E-3
19.76	1.970765153E-3	-9.752596416E-2	-2.316786814E-3
19.77	1.904684464E-3	-1.003176013E-1	-2.564837503E-3
19.78	1.247212238E-3	-9.926375815E-2	-2.871285031E-3
19.79	2.195582858E-3	-9.690214257E-2	-1.287011157E-3
19.8	2.741940569E-3	-9.456102647E-2	-4.326845153E-4
19.81	1.217254319E-3	-9.056512393E-2	1.627953058E-4
19.82	1.306191914E-3	-8.845255980E-2	1.322850193E-3
19.830000000000002	1.861205707E-3	-8.826519288E-2	2.147362662E-3
19.84	1.227029423E-3	-8.964636244E-2	2.332203818E-3
19.85	1.662199507E-3	-9.377818026E-2	3.231461477E-3
19.86	1.650020130E-3	-9.994685995E-2	3.669690586E-3
19.87	1.241819191E-3	-1.083139442E-1	3.535881847E-3
19.88	2.053316245E-3	-1.179613344E-1	3.357480002E-3
19.89	2.528207703E-3	-1.279405643E-1	3.466337021E-3
19.900000000000002	2.687005483E-3	-1.391871379E-1	3.778207337E-3
19.91	3.223410407E-3	-1.493106405E-1	2.895806265E-3
19.92	3.849733780E-3	-1.586719672E-1	3.704140616E-3
19.93	3.672009153E-3	-1.646111664E-1	2.418731610E-3
19.94	4.342585691E-3	-1.690836118E-1	2.809536221E-3
19.95	4.966512270E-3	-1.709466001E-1	2.061451808E-3
19.96	4.831460038E-3	-1.701107925E-1	8.865655881E-4
19.97	5.199643826E-3	-1.654765563E-1	6.460574305E-4
19.98	5.160527002E-3	-1.569651459E-1	3.785901401E-4
19.990000000000002	4.302510428E-3	-1.454687078E-1	-3.212987806E-4
20.0	3.357334173E-3	-1.311350048E-1	-6.063485759E-4
20.01	3.069056853E-3	-1.155560376E-1	-1.087464409E-4
20.02	2.945683310E-3	-9.768302836E-2	-1.228835153E-3
20.03	2.274020782E-3	-7.758612787E-2	-2.657353541E-3
20.04	1.624621654E-3	-5.698425017E-2	-3.495266023E-3
20.05	1.096075870E-4	-3.599287428E-2	-4.010722208E-3
20.06	4.888488449E-4	-1.608020343E-2	-4.796759653E-3
20.07	-7.926654142E-4	2.332593506E-3	-4.961637363E-3
20.080000000000002	-1.798950037E-3	2.010312264E-2	-3.782752615E-3
20.09	-2.356286777E-3	3.768431292E-2	-3.116096485E-3
20.1	-2.740185818E-3	5.299254099E-2	-2.799830946E-3
20.11	-2.932177176E-3	6.668447457E-2	-3.098628092E-3
20.12	-2.701567998E-3	7.822376214E-2	-3.908431101E-3
20.13	-2.877132901E-3	8.606200019E-2	-3.510956259E-3
20.14	-2.797750455E-3	9.213168068E-2	-2.875867710E-3
20.150000000000002	-1.591680396E-3	9.613828301E-2	-2.531337616E-3
20.16	-3.137454318E-3	9.705802364E-2	-2.109942453E-3
20.17	-2.754432549E-3	9.752007328E-2	-1.022936868E-3
20.18	-2.667399285E-3	9.524777027E-2	1.127282876E-3
20.19	-2.728445167E-3	9.232796088E-2	7.963058235E-4
20.2	-2.868204107E-3	8.945467315E-2	1.106141043E-3
20.21	-1.590658417E-3	8.752897225E-2	2.261345816E-3
20.22	-2.906341384E-3	8.860272147E-2	3.097589459E-3
20.23	-3.151906085E-3	9.255210091E-2	3.239118304E-3
20.240000000000002	-2.719690509E-3	9.851314829E-2	3.432600133E-3
20.25	-2.576345737E-3	1.081863880E-1	3.519835936E-3
20.26	-3.323869100E-3	1.201004513E-1	3.351929617E-3
20.27	-4.115104368E-3	1.322455724E-1	3.463223410E-3
20.28	-4.295224067E-3	1.441318720E-1	3.648077134E-3
20.29	-4.843104947E-3	1.555145204E-1	2.838690470E-3
20.3	-4.643560343E-3	1.652483223E-1	2.071694184E-3
20.31	-5.319139509E-3	1.719501483E-1	2.473990504E-3
20.32	-5.237697651E-3	1.772939166E-1	1.935265494E-3
20.330000000000002	-5.563308885E-3	1.750510176E-1	2.714894247E-3
20.34	-5.692595830E-3	1.709559878E-1	1.019738150E-3
20.35	-5.936665201E-3	1.625015498E-1	1.966776883E-3
20.36	-5.562976468E-3	1.489084141E-1	1.202758709E-3
20.37	-3.511439826E-3	1.343458538E-1	4.772852829E-4
20.38	-3.679447012E-3	1.170089728E-1	-1.211898261E-3
20.39	-3.745644283E-3	9.802812122E-2	-1.551877034E-3
20.400000000000002	-2.761719726E-3	7.812941100E-2	-1.535409813E-3
20.41	-1.734693488E-3	5.763535224E-2	-2.374274301E-3
20.42	-1.042865058E-3	3.701361321E-2	-3.269068765E-3
20.43	-5.294173503E-4	1.733611910E-2	-3.469111562E-3
20.44	-2.317763971E-4	-1.494104823E-3	-3.305671606E-3
20.45	5.430537559E-4	-1.939090647E-2	-3.139998483E-3
20.46	5.183456934E-4	-3.589212753E-2	-4.325816202E-3
20.47	9.522150345E-4	-4.988216319E-2	-4.258161871E-3
20.48	1.857380012E-3	-6.122160601E-2	-3.826552018E-3
20.490000000000002	2.049294273E-3	-7.235907711E-2	-3.966834116E-3
20.5	9.784184551E-4	-7.873987187E-2	-4.039654263E-3
20.51	1.625422424E-3	-8.462683576E-2	-4.022312378E-3
20.52	2.909457146E-3	-8.829363631E-2	-3.293544750E-3
20.53	2.140877141E-3	-9.091697190E-2	-3.260085048E-3
20.54	1.585799000E-3	-9.138643032E-2	-2.611639885E-3
20.55	1.371466282E-3	-9.081011539E-2	-8.859735189E-4
20.56	9.441284227E-4	-9.101840522E-2	4.567995049E-4
20.57	8.005299301E-4	-9.131647138E-2	4.860827147E-4
20.580000000000002	7.248628653E-4	-9.220193729E-2	1.850599982E-3
20.59	1.419140557E-3	-9.542577066E-2	3.573010397E-3
20.6	5.800352595E-4	-9.815593740E-2	3.212489435E-3
20.61	1.899679996E-3	-1.026447508E-1	4.225873756E-3
20.62	1.907749484E-3	-1.098829214E-1	3.975441885E-3
20.63	3.100444684E-3	-1.186265484E-1	3.842080069E-3
20.64	4.329164808E-3	-1.284499109E-1	2.776982060E-3
20.650000000000002	4.318405953E-3	-1.381816293E-1	3.295887956E-3
20.66	4.157357384E-3	-1.482334175E-1	3.062604111E-3
20.67	4.459719436E-3	-1.583034851E-1	2.090819622E-3
20.68	5.113103878E-3	-1.666306693E-1	2.424486289E-3
20.69	5.416428896E-3	-1.718927853E-1	3.060480723E-3
20.7	4.935360710E-3	-1.754742853E-1	1.889927817E-3
20.71	4.688662226E-3	-1.756677309E-1	2.772515249E-3
20.72	4.988287446E-3	-1.703070458E-1	1.453028952E-3
20.73	4.241061872E-3	-1.608302577E-1	3.502067501E-4
20.740000000000002	3.391962657E-3	-1.476567189E-1	-5.795736788E-4
20.75	3.445885217E-3	-1.307166259E-1	-5.132536481E-4
20.76	3.832012081E-3	-1.093119239E-1	-1.089081009E-3
20.77	2.481208602E-3	-8.521421589E-2	-1.715342569E-3
20.78	1.751647750E-3	-6.191518344E-2	-2.716052103E-3
20.79	1.021332549E-3	-4.009663616E-2	-4.123398942E-3
20.8	-2.365874385E-5	-1.731286368E-2	-4.018526296E-3
20.81	-3.418724465E-4	2.843560097E-3	-3.186862753E-3
20.82	-9.453042762E-4	1.974098701E-2	-3.435431815E-3
20.830000000000002	-2.066625496E-3	3.518195234E-2	-4.078509378E-3
20.84	-2.528622738E-3	4.752753454E-2	-3.667505632E-3
20.85	-2.199609581E-3	5.586913449E-2	-3.123514111E-3
20.86	-2.167218441E-3	6.282821274E-2	-3.162034765E-3
20.87	-2.412570435E-3	6.874066014E-2	-3.218298668E-3
20.88	-2.599344163E-3	7.307839488E-2	-2.636415166E-3
20.89	-2.640468469E-3	7.611112200E-2	-1.849486398E-3
20.900000000000002	-2.639520544E-3	7.923775835E-2	-2.181976552E-3
20.91	-2.985242420E-3	8.222214546E-2	-1.114940261E-3
20.92	-2.549488833E-3	8.470649205E-2	-1.371886301E-3
20.93	-2.656748285E-3	8.655980073E-2	-8.727903841E-4
20.94	-2.871068029E-3	8.983245509E-2	9.994862264E-4
20.95	-3.120139192E-3	9.199086809E-2	1.452309551E-3
20.96	-3.317562775E-3	9.466822453E-2	1.783339977E-3
20.97	-3.390705971E-3	9.840630180E-2	3.487560588E-3
20.98	-3.258363595E-3	1.036333235E-1	4.125760031E-3
20.990000000000002	-3.380181482E-3	1.099457844E-1	3.258278799E-3
21.0	-3.557028408E-3	1.164699874E-1	3.758178628E-3
21.01	-3.177999939E-3	1.254606393E-1	2.995424073E-3
21.02	-3.339514366E-3	1.353779269E-1	1.999336535E-3
21.03	-3.425674625E-3	1.449787880E-1	2.479411223E-3
21.04	-5.793153336E-3	1.541285714E-1	2.969716025E-3
21.05	-4.682241967E-3	1.635885438E-1	2.174733114E-3
21.06	-6.291145673E-3	1.679842909E-1	2.522442770E-3
21.07	-6.970378423E-3	1.729214946E-1	1.647376343E-3
21.080000000000002	-7.486870810E-3	1.731369298E-1	1.776711334E-3
21.09	-6.649055492E-3	1.679477915E-1	1.450879695E-3
21.1	-5.697539583E-3	1.605601089E-1	1.063455059E-3
21.11	-4.690096071E-3	1.488078888E-1	2.708940031E-4
21.12	-4.743342688E-3	1.336234816E-1	-3.960676668E-4
21.13	-3.725241824E-3	1.158024689E-1	-5.910269096E-4
21.14	-2.555906955E-3	9.434027709E-2	-1.719592584E-3
21.150000000000002	-2.266103901E-3	7.180105672E-2	-2.473651125E-3
21.16	-1.842490354E-3	4.921934542E-2	-2.094677880E-3
21.17	-1.130838573E-3	2.587389711E-2	-2.510511833E-3
21.18	-1.012108116E-3	4.337281783E-3	-2.774667405E-3
21.19	5.256237186E-4	-1.600722768E-2	-3.739859628E-3
21.2	8.148433364E-4	-3.310949005E-2	-3.556944895E-3
21.21	1.655484955E-4	-4.832782260E-2	-3.715451828E-3
21.22	1.143644937E-3	-5.815432522E-2	-4.683651011E-3
21.23	2.925397278E-3	-6.599979132E-2	-3.526557800E-3
21.240000000000002	2.358174956E-3	-7.138203774E-2	-3.732506923E-3
21.25	2.149618322E-3	-7.353742899E-2	-3.859927041E-3
21.26	1.939371209E-3	-7.453787950E-2	-3.289117714E-3
21.27	1.649366555E-3	-7.514749476E-2	-2.710967447E-3
21.28	1.562173495E-3	-7.542285340E-2	-2.288713950E-3
21.29	1.310557577E-3	-7.577139740E-2	-1.370351441E-3
21.3	6.040559755E-4	-7.778417229E-2	-1.436681531E-3
21.31	1.573175124E-3	-7.862025939E-2	-7.376114102E-4
21.32	2.068085948E-3	-8.302308025E-2	8.365593323E-4
21.330000000000002	1.867127387E-3	-8.998946412E-2	2.197957199E-3
21.34	1.049858639E-3	-9.782782234E-2	3.444283438E-3
21.35	1.027640263E-3	-1.058646838E-1	3.671067190E-3
21.36	1.333912052E-3	-1.144287640E-1	2.809364099E-3
21.37	2.778887107E-3	-1.241593780E-1	2.452862113E-3
21.38	3.883031911E-3	-1.326227794E-1	2.995304700E-3
21.39	3.333725504E-3	-1.410765414E-1	2.738782117E-3
21.400000000000002	3.522758583E-3	-1.491597938E-1	2.123670325E-3
21.41	4.402031309E-3	-1.560087970E-1	1.953063587E-3
21.42	4.324935237E-3	-1.617388336E-1	2.163269949E-3
21.43	4.035715843E-3	-1.653979436E-1	3.137638998E-3
21.44	5.184820338E-3	-1.676348748E-1	2.278277510E-3
21.45	5.624749245E-3	-1.675429605E-1	1.957907040E-3
21.46	5.086099515E-3	-1.656649510E-1	2.715847922E-3
21.47	4.353893243E-3	-1.608072207E-1	2.813255467E-3
21.48	4.106728517E-3	-1.504242059E-1	2.166561065E-4
21.490000000000002	3.819471309E-3	-1.377096692E-1	-6.579117755E-5
21.5	3.455552617E-3	-1.220981351E-1	-1.037680673E-3
21.51	3.183500660E-3	-1.052027544E-1	-1.677293998E-3
21.52	2.489985945E-3	-8.377187556E-2	-1.845259553E-3
21.53	1.205535982E-3	-6.119826834E-2	-2.668090262E-3
21.54	-2.857313601E-4	-3.779875149E-2	-2.642832692E-3
21.55	-6.296688471E-4	-1.357475302E-2	-2.644547991E-3
21.56	-1.184218516E-3	8.703231512E-3	-3.070685434E-3
21.57	-2.338901262E-3	2.661967428E-2	-3.144172037E-3
21.580000000000002	-2.420910869E-3	4.185248277E-2	-3.706241676E-3
21.59	-2.694466930E-3	5.478351209E-2	-4.353212559E-3
21.6	-1.991938464E-3	6.349327113E-2	-3.461233346E-3
21.61	-2.924898853E-3	6.882412635E-2	-3.134657907E-3
21.62	-3.510476051E-3	7.110115724E-2	-3.004090347E-3
21.63	-3.053397598E-3	7.236927443E-2	-3.892865756E-3
21.64	-2.725701620E-3	7.189636551E-2	-3.150698709E-3
21.650000000000002	-2.019890835E-3	7.085574947E-2	-2.498709726E-3
21.66	-2.076001569E-3	7.026168678E-2	-1.046241238E-3
21.67	-2.845206305E-3	7.127316984E-2	-9.369852371E-4
21.68	-2.486170067E-3	7.345844961E-2	-3.542347065E-4
21.69	-2.465972081E-3	7.764228932E-2	5.750690811E-4
21.7	-2.714401176E-3	8.306924783E-2	1.202710104E-3
21.71	-2.553318729E-3	8.992777072E-2	2.105973196E-3
21.72	-2.786735268E-3	9.891075623E-2	3.110613815E-3
21.73	-2.970547914E-3	1.088523485E-1	3.437304766E-3
21.740000000000002	-3.486814901E-3	1.192104313E-1	3.810029810E-3
21.75	-3.284713445E-3	1.296105814E-1	3.396889411E-3
21.76	-3.125054231E-3	1.414431294E-1	4.561303091E-3
21.77	-4.767476609E-3	1.508082946E-1	2.660344076E-3
21.78	-5.875513544E-3	1.581680735E-1	1.313851309E-3
21.79	-5.757263234E-3	1.647626538E-1	3.440425702E-3
21.8	-5.242917215E-3	1.692697110E-1	3.135407611E-3
21.81	-6.434703095E-3	1.708682090E-1	2.422760741E-3
21.82	-5.598522782E-3	1.696979701E-1	2.816022444E-3
21.830000000000002	-4.902126779E-3	1.652395805E-1	2.362664175E-3
21.84	-4.808657458E-3	1.580883916E-1	9.481935026E-4
21.85	-5.274802567E-3	1.482366660E-1	9.795184823E-4
21.86	-4.829761814E-3	1.352393724E-1	3.918922348E-4
21.87	-4.020850019E-3	1.203504088E-1	-1.039699910E-3
21.88	-3.473013396E-3	1.031490755E-1	-1.726792682E-3
21.89	-2.168680561E-3	8.387087655E-2	-2.027737890E-3
21.900000000000002	-1.181862809E-3	6.429839178E-2	-2.491991485E-3
21.91	-8.314093851E-4	4.359977446E-2	-3.363539743E-3
21.92	-9.386694335E-4	2.300676606E-2	-3.970648813E-3
21.93	-5.852854156E-4	4.175891502E-3	-2.803256082E-3
21.94	-3.582449963E-4	-1.512541591E-2	-2.952664561E-3
21.95	5.253856023E-4	-3.271023551E-2	-3.301003999E-3
21.96	-4.193423903E-4	-4.576619407E-2	-3.811669796E-3
21.97	6.880469147E-4	-5.799914247E-2	-3.600680793E-3
21.98	1.569740779E-3	-6.685142192E-2	-3.615228506E-3
21.990000000000002	1.905628360E-3	-7.252039146E-2	-3.711750691E-3
22.0	2.036688458E-3	-7.595630969E-2	-3.813671526E-3
22.01	1.666383410E-3	-7.667259632E-2	-4.122102772E-3
22.02	1.721818241E-3	-7.530402014E-2	-3.034251279E-3
22.03	9.565802015E-4	-7.360501684E-2	-2.539851236E-3
22.04	8.298161514E-4	-7.123244483E-2	-5.447864496E-4
22.05	1.529886897E-3	-6.986757761E-2	-2.398071877E-4
22.06	1.393464900E-3	-7.083146693E-2	7.425567557E-5
22.07	1.538663268E-3	-7.506201118E-2	1.343262879E-4
22.080000000000002	1.212089518E-3	-8.206268110E-2	1.446564627E-3
22.09	1.563175330E-3	-9.061151303E-2	2.649929953E-3
22.1	2.706444149E-3	-1.013449704E-1	1.824990663E-3
22.11	2.500500223E-3	-1.141207954E-1	1.883593062E-3
22.12	2.755631604E-3	-1.272298238E-1	2.803195782E-3
22.13	3.546457856E-3	-1.401386235E-1	3.061131207E-3
22.14	2.449030290E-3	-1.526966087E-1	3.202965689E-3
22.150000000000002	4.033800075E-3	-1.633395068E-1	3.217537832E-3
22.16	4.860315654E-3	-1.710672286E-1	2.948489658E-3
22.17	4.037596910E-3	-1.744525946E-1	2.509412507E-3
22.18	4.084365974E-3	-1.753710429E-1	1.745770407E-3
22.19	3.823269123E-3	-1.749472282E-1	3.415358338E-3
22.2	4.397442213E-3	-1.679152884E-1	1.439397036E-3
22.21	4.790942753E-3	-1.590661494E-1	1.195996237E-3
22.22	4.257131154E-3	-1.487674371E-1	9.197549345E-4
22.23	2.898535034E-3	-1.373141679E-1	-1.903528447E-5
22.240000000000002	3.145749103E-3	-1.216589068E-1	-1.247394122E-3
22.25	2.569785092E-3	-1.045529094E-1	-1.871722777E-3
22.26	1.505906293E-3	-8.665590443E-2	-2.554099130E-3
22.27	1.571888751E-3	-6.765046591E-2	-3.394188858E-3
22.28	1.134756439E-3	-4.839783202E-2	-3.281169987E-3
22.29	-5.820295118E-4	-2.929236688E-2	-3.317114877E-3
22.3	-5.701538824E-4	-9.722927885E-3	-3.647200632E-3
22.31	-6.901842092E-4	6.660130407E-3	-3.590157856E-3
22.32	-1.947216342E-3	2.182128377E-2	-2.642681602E-3
22.330000000000002	-3.162403991E-3	3.580521248E-2	-3.323294687E-3
22.34	-2.436819639E-3	4.882789296E-2	-2.904272675E-3
