Time (s)	Acceleration x (m/s^2)	Acceleration y (m/s^2)	Acceleration z (m/s^2)
0.0	3.567085090E-6	1.277861518E-4	1.384109201E-3
0.01	-1.257432869E-5	1.277121589E-4	1.376931885E-3
0.02	-8.223787477E-4	1.176366395E-4	4.139596631E-4
0.03	1.031232011E-4	9.025266419E-5	3.823589691E-4
0.04	1.022131817E-4	-6.357466151E-4	-4.888757076E-4
0.05	6.797679055E-4	8.268733087E-4	2.327710094E-3
0.06	-2.230701839E-4	-7.104821057E-4	1.428060712E-3
0.07	-7.491639006E-4	1.524642536E-4	2.374109196E-3
0.08	1.111930240E-4	-4.417651004E-4	2.374109196E-3
0.09	-1.808259757E-5	3.979247012E-4	2.374109196E-3
0.1	-1.214707725E-3	9.332685870E-4	2.446918897E-3
0.11	-1.915312807E-4	6.122643309E-4	3.354109208E-3
0.12	-1.319783240E-4	3.718582302E-4	3.354109208E-3
0.13	-3.239857184E-5	-3.369501770E-4	3.448669295E-3
0.14	3.894178530E-4	-5.676757963E-4	4.232298961E-3
0.15	-3.965273632E-4	1.709987752E-4	3.354109208E-3
0.16	-7.648522677E-4	-4.232213725E-4	3.237780491E-3
0.17	6.104229334E-5	-2.670651001E-4	2.374109196E-3
0.18	4.356708408E-5	-1.635502223E-4	2.505074139E-3
0.19	1.803717509E-4	-3.681954218E-5	3.492324220E-3
0.2	5.786559042E-4	6.423209734E-4	4.334109126E-3
0.21	-1.762159291E-3	-4.105690516E-5	4.334109126E-3
0.22	-6.080842334E-4	6.194280791E-4	4.494099727E-3
0.23	1.021859220E-3	-1.939216961E-4	5.314109111E-3
0.24	1.011785257E-3	-2.039956788E-4	5.314109111E-3
0.25	1.181725487E-3	-2.122138294E-4	5.314109111E-3
0.26	1.772517153E-3	-2.141436276E-4	5.312179314E-3
0.27	5.828303364E-4	-2.242176151E-4	5.304109111E-3
0.28	-7.769680595E-4	-2.322138420E-4	5.509807205E-3
0.29	3.989182264E-4	-2.343659219E-4	6.081053288E-3
0.3	1.479244543E-3	-2.422138483E-4	5.304109111E-3
0.31	-3.873418822E-5	-2.445151195E-4	5.531935334E-3
0.32	1.815916759E-4	-2.545890890E-4	6.294109056E-3
0.33	4.384151611E-4	-2.622138376E-4	6.051634636E-3
0.34	-5.394518693E-4	-2.647370511E-4	5.304109111E-3
0.35000000000000003	6.490015988E-4	-2.722138206E-4	5.304109111E-3
0.36	-7.910566327E-5	-2.722138206E-4	6.092571286E-3
0.37	-3.528661333E-4	-2.749605629E-4	7.715749171E-3
0.38	-2.356049387E-4	-2.822138502E-4	6.291288346E-3
0.39	2.116984359E-3	-2.822138502E-4	6.000428898E-3
0.4	2.466699374E-3	-2.822138502E-4	5.595039384E-3
0.41000000000000003	1.459301297E-3	-2.852565024E-4	6.284109073E-3
0.42	1.588441377E-4	-2.922138332E-4	6.284109073E-3
0.43	-5.571475189E-4	-2.954060206E-4	6.596943974E-3
0.44	4.434820312E-4	-3.022138162E-4	6.944024049E-3
0.45	4.282169046E-4	-3.022138162E-4	6.284109073E-3
0.46	1.372153564E-3	-3.022138162E-4	6.618694345E-3
0.47000000000000003	7.100789605E-4	-3.022138162E-4	7.264109085E-3
0.48	3.544265921E-4	-3.022138162E-4	6.914968603E-3
0.49	7.278166689E-5	-3.022138162E-4	6.284109073E-3
0.5	3.235387380E-4	-3.059254597E-4	6.647849061E-3
0.51	-6.574230062E-4	-3.122138458E-4	6.893118966E-3
0.52	-8.881926578E-4	-3.122138458E-4	6.284109073E-3
0.53	-2.824993367E-4	-3.122138458E-4	6.669599427E-3
0.54	-2.804404660E-4	-3.122138458E-4	7.264109085E-3
0.55	-2.864329141E-4	-3.122138458E-4	6.864055504E-3
0.56	1.126478533E-4	-3.122138458E-4	6.691504038E-3
0.5700000000000001	2.631530807E-4	-3.164449107E-4	7.264109085E-3
0.58	5.301372714E-4	-3.222138288E-4	6.842213884E-3
0.59	1.190042739E-3	-3.265928755E-4	6.713254386E-3
0.6	2.060776815E-4	-3.322138584E-4	6.391318234E-3
0.61	1.036993120E-4	-3.367415585E-4	5.747824459E-3
0.62	-2.739301914E-4	-3.422138414E-4	7.186208925E-3
0.63	-8.681328323E-4	-3.468903645E-4	7.327509001E-3
0.64	-3.511834201E-4	-3.522138244E-4	6.284109073E-3
0.65	-8.195841808E-4	-3.522138244E-4	6.756909356E-3
0.66	-8.363824871E-4	-3.571123123E-4	6.784058685E-3
0.67	-8.138636774E-4	5.876744739E-4	6.284109073E-3
0.68	-3.223204403E-4	5.686264735E-4	6.284109073E-3
0.6900000000000001	-8.157387128E-4	-3.870926123E-4	5.782229320E-3
0.7000000000000001	-6.896013695E-4	-3.770178582E-4	5.304109111E-3
0.71	6.877572051E-4	-3.616739274E-4	5.304109111E-3
0.72	6.682231385E-4	-3.522138244E-4	5.827814450E-3
0.73	6.364775088E-4	6.663537928E-4	5.753153613E-3
0.74	8.085337967E-5	4.568668359E-4	5.842314685E-3
0.75	-3.508670335E-4	1.009783663E-4	5.738653377E-3
0.76	1.894377304E-4	5.121453941E-4	5.856901960E-3
0.77	5.488770315E-5	4.906399067E-4	5.723998889E-3
0.78	1.877698468E-4	-7.799539514E-5	5.304109111E-3
0.79	1.117133880E-3	7.480647086E-5	5.304109111E-3
0.8	3.417206382E-4	1.014022596E-3	5.304109111E-3
0.81	-4.404215752E-4	7.866528100E-4	5.304109111E-3
0.8200000000000001	-1.002456189E-3	3.756136008E-4	5.304109111E-3
0.8300000000000001	-1.773851588E-4	9.407469625E-4	5.304109111E-3
0.84	-3.497850990E-5	9.446013661E-5	5.304109111E-3
0.85	7.896272435E-4	5.601551480E-4	5.304109111E-3
0.86	8.388015821E-4	6.257882822E-4	5.304109111E-3
0.87	-1.399777038E-4	2.613277840E-4	5.304109111E-3
0.88	1.506724111E-4	2.447214571E-4	5.944279117E-3
0.89	-7.716352004E-4	8.521746473E-4	5.636688965E-3
0.9	-1.389711628E-3	5.064355741E-4	5.304109111E-3
0.91	-1.369678577E-3	8.261979138E-4	4.648943042E-3
0.92	-1.345944872E-3	4.616809753E-4	4.334109126E-3
0.93	-1.308817605E-3	7.967456982E-4	5.003780171E-3
0.9400000000000001	-6.056301164E-4	-2.589303588E-4	5.304109111E-3
0.9500000000000001	-3.064329034E-4	-8.210584588E-4	5.304109111E-3
0.96	1.040337056E-3	-1.210143979E-4	5.304109111E-3
0.97	8.707919274E-4	-5.405894446E-4	3.900158220E-3
0.98	-1.120957444E-4	-8.122138346E-4	4.067046855E-3
0.99	-1.074614835E-3	-8.048645631E-4	5.046989657E-3
1.0	8.040441070E-4	-7.799440254E-4	5.304109111E-3
1.01	7.863452590E-4	-7.572193438E-4	5.304109111E-3
1.02	-1.932706485E-4	-7.295001317E-4	5.304109111E-3
1.03	-1.168017997E-3	-7.222138012E-4	3.813293799E-3
1.04	-6.476716395E-4	-7.222138012E-4	4.110589586E-3
1.05	-4.108441023E-4	-7.066250358E-4	5.090165523E-3
1.06	3.489645447E-4	-7.022138352E-4	3.769708096E-3
1.07	5.456243511E-4	-6.942711441E-4	3.354109208E-3
1.08	-2.340513563E-4	-6.922138522E-4	4.139744285E-3
1.09	3.421803817E-4	-6.841231997E-4	4.334109126E-3
1.1	5.154024127E-4	-6.822138692E-4	3.533973814E-3
1.11	-2.855797928E-4	-6.904524830E-4	3.354109208E-3
1.12	3.333892443E-4	-6.838999489E-4	4.168873043E-3
1.1300000000000001	-3.200847229E-4	-6.822138692E-4	2.690029207E-3
1.1400000000000001	3.274707881E-4	-6.737516604E-4	4.853517403E-3
1.1500000000000001	4.650309652E-4	-6.636776828E-4	4.476105024E-3
1.16	-3.716131640E-4	-6.536037187E-4	3.490318818E-3
1.17	3.273706439E-4	-6.608992662E-4	3.354109208E-3
1.18	-3.961181156E-4	-6.622138100E-4	3.354109208E-3
1.19	-5.252665266E-4	-6.533802027E-4	3.354109208E-3
1.2	1.183826826E-3	-6.433062394E-4	4.227054206E-3
1.21	1.366622306E-3	-6.332322335E-4	4.334109126E-3
1.22	-3.932123973E-4	-6.231582654E-4	4.334109126E-3
1.23	3.000034621E-4	-6.222138314E-4	3.439413736E-3
1.24	3.651571264E-4	-6.130088717E-4	4.256196713E-3
1.25	-5.365037435E-4	-6.029347402E-4	4.334109126E-3
1.26	-5.970798164E-4	-5.741546369E-4	4.334109126E-3
1.27	1.222986196E-3	-5.722138232E-4	1.562558899E-3
1.28	-5.191324994E-4	-5.722138232E-4	2.325209519E-3
1.29	-6.068579014E-4	-5.817888555E-4	2.374109196E-3
1.3	3.102206826E-4	-5.629158702E-4	4.265310231E-3
1.31	-1.542985220E-3	-5.719383204E-4	2.428107836E-3
1.32	-6.363289674E-4	-5.722138232E-4	1.414005446E-3
1.33	-6.164328891E-4	-5.722138232E-4	3.329115606E-3
1.34	-6.164328891E-4	-5.722138232E-4	4.328864361E-3
1.35	-6.125039401E-4	-5.622343034E-4	2.378119998E-3
1.36	1.294217149E-3	-5.721193798E-4	4.324853657E-3
1.37	3.133986167E-4	-5.622138402E-4	3.354109208E-3
1.3800000000000001	2.799010530E-4	-5.619698598E-4	3.354109208E-3
1.3900000000000001	-6.355907744E-4	-5.522138106E-4	3.354109208E-3
1.4000000000000001	3.031751432E-4	-5.522138106E-4	3.315698960E-3
1.41	2.045760509E-4	-5.517478898E-4	2.465429833E-3
1.42	-1.562982440E-3	-5.416739256E-4	4.334109126E-3
1.43	-6.258190336E-4	-5.322138446E-4	4.273948574E-3
1.44	-4.176087524E-4	-5.322138446E-4	3.354109208E-3
1.45	2.050648651E-3	-5.314504230E-4	3.428924295E-3
1.46	-6.464328847E-4	-5.213764167E-4	4.334109126E-3
1.47	-6.446101259E-4	-4.256326485E-4	4.334109126E-3
1.48	-6.254475544E-4	3.431914577E-4	4.237543727E-3
1.49	-7.181457837E-4	-4.205009253E-4	3.457941112E-3
1.5	-1.464078051E-3	4.366512420E-4	4.222889195E-3
1.51	-5.852242081E-4	4.253687780E-4	3.472560567E-3
1.52	-5.738699365E-4	5.244013740E-4	4.458413280E-3
1.53	-2.959197479E-4	1.312358738E-3	5.172495695E-3
1.54	9.543524014E-4	1.267770401E-3	4.472898714E-3
1.55	-1.345952752E-3	1.200262095E-3	5.304109111E-3
1.56	-4.932748432E-4	1.149891017E-3	5.304109111E-3
1.57	-6.352492338E-4	1.104477480E-3	5.466234126E-3
1.58	-1.265329431E-3	9.184110057E-4	6.114733973E-3
1.59	-2.752145427E-4	2.753999064E-4	5.304109111E-3
1.6	1.470740603E-4	8.520344842E-4	5.304109111E-3
1.61	-8.347580080E-4	2.311105928E-4	5.304109111E-3
1.62	1.088840126E-3	7.894105215E-4	5.700860267E-3
1.6300000000000001	-6.636657490E-4	5.687934748E-6	6.852857635E-3
1.6400000000000001	-1.191351035E-3	-4.386391435E-6	5.304109111E-3
1.6500000000000001	-6.344653249E-4	-1.446160166E-5	5.744669492E-3
1.6600000000000001	-9.383374017E-4	-2.474224403E-4	7.036578744E-3
1.67	8.598480067E-5	-3.046425552E-4	6.049328652E-3
1.68	-8.897808398E-4	1.630816180E-3	5.546139676E-3
1.69	5.584796985E-4	3.843121819E-4	6.284109073E-3
1.7	3.827888349E-5	-1.059595713E-3	6.284109073E-3
1.71	-8.639489232E-4	-1.044134165E-3	6.020173899E-3
1.72	2.851490004E-4	-1.022213850E-3	5.846479665E-3
1.73	-4.135917233E-4	-1.019372651E-3	6.985673661E-3
1.74	-6.833729367E-4	-7.265282773E-4	6.284109073E-3
1.75	-7.765398676E-4	-3.251494788E-4	6.577044732E-3
1.76	5.774398669E-4	-1.003022984E-3	6.663643098E-3
1.77	2.591635498E-4	-9.790756499E-4	5.611650805E-3
1.78	2.101917805E-4	-9.690022608E-4	6.598844593E-3
1.79	8.726729822E-4	-9.622138592E-4	7.264109085E-3
1.8	-4.330722881E-4	-9.554926046E-4	6.605428090E-3
1.81	-4.264328859E-4	-9.387792079E-4	6.313880918E-3
1.82	-4.264328859E-4	-9.287052440E-4	8.587949772E-3
1.83	-4.264328859E-4	-9.222138340E-4	8.521927298E-3
1.84	2.793905331E-4	-9.222138340E-4	7.622506494E-3
1.85	7.758084384E-4	-9.184817450E-4	7.878363744E-3
1.86	-4.464328984E-4	-9.122138510E-4	8.010099931E-3
1.87	-7.782749773E-5	-9.122138510E-4	8.463617818E-3
1.8800000000000001	1.239794743E-4	-9.122138510E-4	7.651604780E-3
1.8900000000000001	-8.511786863E-4	-9.081858393E-4	8.638854845E-3
1.9000000000000001	-6.405197821E-4	-9.022138680E-4	8.419990601E-3
1.9100000000000001	4.993895240E-4	-8.980362820E-4	7.673509394E-3
1.92	-3.269791387E-4	-8.879622641E-4	7.410808227E-3
1.93	-1.012532321E-3	-8.822138088E-4	7.131910165E-3
1.94	-3.408123040E-5	-8.778143197E-4	8.244109096E-3
1.95	9.330208936E-4	-8.677403561E-4	7.805708314E-3
1.96	5.813602017E-4	-8.576663924E-4	8.155410812E-3
1.97	-4.810550740E-4	-8.475916583E-4	8.771136710E-3
1.98	-9.373443263E-4	-8.469108132E-4	8.244109096E-3
1.99	-9.836483722E-4	-8.522138598E-4	8.711664524E-3
2.0	-4.764328941E-4	-8.522138598E-4	8.749303379E-3
2.0100000000000002	-4.764328941E-4	-8.472948861E-4	8.726164757E-3
2.02	7.880044405E-6	-8.422137836E-4	9.713414885E-3
2.0300000000000002	-4.944779754E-4	-8.422137836E-4	1.020410912E-2
2.04	-1.451291227E-3	-8.422137836E-4	9.196338327E-3
2.05	-4.344448290E-4	-8.422137836E-4	8.244109096E-3
2.06	-1.431267612E-5	-8.422137836E-4	9.281030295E-3
2.07	5.688953224E-4	-8.422137836E-4	9.152687678E-3
2.08	9.251678687E-4	-8.422137836E-4	9.310030766E-3
2.09	4.625406201E-4	-8.422137836E-4	1.074440499E-2
2.1	4.479791608E-4	-8.478017377E-4	1.063649372E-2
2.11	4.435670798E-4	-8.522138598E-4	1.020410912E-2
2.12	9.941464727E-4	-3.016344594E-4	9.642059209E-3
2.13	8.283915534E-4	1.019762991E-4	1.036284028E-2
2.14	4.076832321E-4	9.778615332E-5	1.003087733E-2
2.15	9.814751386E-4	-4.860797342E-4	9.807974950E-3
2.16	-3.940273407E-4	-2.910047636E-4	1.020410912E-2
2.17	-9.518050953E-4	-5.007342378E-4	1.020410912E-2
2.18	-5.726142310E-4	-2.826246434E-4	1.020410912E-2
2.19	3.033241661E-5	8.153084161E-5	9.591088345E-3
2.2	-2.203743800E-4	6.917276289E-4	9.844379803E-3
2.21	6.593990301E-4	-2.072556184E-4	1.083162990E-2
2.22	9.030346762E-5	3.445714880E-4	1.118410895E-2
2.23	3.253786783E-5	3.791600273E-4	1.118410895E-2
2.24	-2.791801272E-4	6.672808052E-4	1.053473559E-2
2.25	3.684113741E-5	1.631060116E-3	1.086078461E-2
2.2600000000000002	3.535670697E-4	1.263428448E-3	1.052007884E-2
2.27	3.535670697E-4	9.240855178E-4	1.154676911E-2
2.2800000000000002	-1.668006856E-3	9.039397402E-4	1.080716211E-2
2.29	-5.160785449E-4	2.189999023E-4	1.088989305E-2
2.3000000000000003	3.564948221E-4	5.996498445E-4	9.797948031E-3
2.31	3.535670697E-4	1.846017906E-4	1.062477011E-2
2.32	3.463468709E-4	5.937061821E-4	1.118410895E-2
2.33	1.051215041E-3	8.504907948E-4	1.189905214E-2
2.34	5.840769816E-4	1.555170429E-3	1.144198740E-2
2.35	-4.058787611E-4	1.070896962E-3	1.118410895E-2
2.36	7.944847863E-4	1.539486164E-3	1.118410895E-2
2.37	-9.352667848E-4	1.755014698E-3	9.696371970E-3
2.38	-1.416988578E-4	2.530521227E-4	1.072650828E-2
2.39	3.058262114E-4	5.331687345E-4	1.194271402E-2
2.4	2.957518743E-4	7.321557386E-4	1.063232876E-2
2.41	2.935670785E-4	7.120077739E-4	1.175038942E-2
2.42	-4.788600984E-4	-7.260420452E-5	1.138371853E-2
2.43	-1.464073452E-3	-2.641766860E-4	1.197174933E-2
2.44	-1.656432938E-3	-2.703236764E-4	1.216410877E-2
2.45	7.335357026E-4	-2.722138206E-4	1.055988352E-2
2.46	-1.139828229E-3	-2.804729353E-4	1.101349982E-2
2.47	-8.214588515E-4	-1.090521762E-3	1.118410895E-2
2.48	-6.648399518E-4	-4.367298162E-4	1.118410895E-2
2.49	-1.489093005E-3	5.319653180E-4	1.201525003E-2
2.5	8.530759629E-4	-1.691601783E-4	1.216410877E-2
2.5100000000000002	4.191621532E-4	-3.122138458E-4	1.131833436E-2
2.52	-5.607742108E-4	-1.165259704E-3	1.203715464E-2
2.5300000000000002	-1.537950334E-3	-4.319179180E-4	1.216410877E-2
2.54	-7.798963780E-4	-1.179896476E-3	1.216410877E-2
2.5500000000000003	-6.664328973E-4	-1.283285723E-3	1.128915847E-2
2.56	-1.539631291E-3	-1.291215896E-3	1.207531153E-2
2.57	-1.609204750E-3	-1.283137761E-3	1.127558222E-2
2.58	1.778186362E-4	-1.282213781E-3	1.208995972E-2
2.59	3.435670867E-4	-1.282213781E-3	1.217410894E-2
2.6	1.227023759E-3	-1.272914253E-3	1.125345409E-2
2.61	-5.342701630E-4	-3.536084446E-4	1.210271417E-2
2.62	-6.564329142E-4	-1.208621859E-3	1.216410877E-2
2.63	1.180924691E-3	-1.262213815E-3	1.123115012E-2
2.64	-1.518695220E-3	-1.262213815E-3	1.118410895E-2
2.65	-6.888270529E-4	-1.252544384E-3	1.118410895E-2
2.66	-1.591801987E-3	-1.252213832E-3	1.214870839E-2
2.67	-6.443563556E-4	-1.252213832E-3	1.217410894E-2
2.68	3.133986503E-4	-1.242320885E-3	1.119470551E-2
2.69	-1.600053271E-3	-1.242213849E-3	1.118410895E-2
2.7	1.295627506E-3	-1.232213773E-3	1.118009824E-2
2.71	-6.364329017E-4	-1.232098866E-3	1.021536999E-2
2.72	-6.545660671E-4	-1.222024903E-3	1.120280877E-2
2.73	-1.494160935E-3	-1.211950898E-3	1.217384603E-2
2.74	2.259724730E-3	-1.201875401E-3	1.213094329E-2
2.75	1.253151525E-3	-1.191389031E-3	1.118410895E-2
2.7600000000000002	2.659013528E-4	-1.172700170E-3	1.127992677E-2
2.77	-6.126378385E-4	-1.182213858E-3	1.304371718E-2
2.7800000000000002	3.550986815E-4	-1.182213858E-3	1.124627489E-2
2.79	1.125421575E-3	-1.113495342E-3	1.209468183E-2
2.8000000000000003	-6.864329098E-4	-2.890342340E-4	1.118410895E-2
2.81	-6.040780727E-4	-1.191355980E-3	1.110003840E-2
2.82	9.278949369E-5	-1.090893216E-3	1.029542974E-2
2.83	-1.372732178E-3	-1.066605245E-4	1.148082713E-2
2.84	1.147746181E-3	7.467063200E-4	1.392138705E-2
2.85	1.628036277E-4	7.354785665E-4	1.205103776E-2
2.86	-6.864329098E-4	4.783716778E-4	1.118410895E-2
2.87	-5.601435056E-4	-1.105924375E-3	1.144059364E-2
2.88	1.499308628E-5	-1.299928045E-4	1.274780490E-2
2.89	-1.664981641E-3	4.147859509E-4	1.034633482E-2
2.9	-1.506957050E-3	-1.250688571E-3	1.163406180E-2
2.91	-6.732343966E-4	-1.087087125E-3	1.366233151E-2
2.92	-4.957779542E-4	4.909608390E-5	1.151378634E-2
2.93	1.339353775E-4	1.306773900E-3	1.298097980E-2
2.94	-6.646101394E-4	-1.272287696E-4	1.216410877E-2
2.95	-6.564329142E-4	4.738021555E-4	1.179234738E-2
2.96	-8.492338802E-5	-5.033739245E-4	1.039723990E-2
2.97	1.646513512E-3	-1.282213781E-3	1.138448987E-2
2.98	-4.730392078E-4	-1.074582738E-3	1.195647776E-2
2.99	4.940960876E-4	1.188442044E-4	1.096919395E-2
3.0	1.019013280E-3	1.393232344E-3	1.087323406E-2
3.0100000000000002	2.871582502E-5	6.231017364E-4	1.269269556E-2
3.02	-4.720632596E-4	8.397395723E-4	1.142089471E-2
3.0300000000000002	-2.195243912E-4	1.321260065E-3	1.192007291E-2
3.04	-1.178989108E-3	3.265000981E-4	1.118410895E-2
3.0500000000000003	-2.456709535E-4	-3.995752980E-4	1.118410895E-2
3.06	-1.397778718E-3	-1.344143801E-4	1.091816848E-2
3.0700000000000003	-4.060298973E-4	5.549984649E-4	1.075049033E-2
3.08	5.682845417E-4	5.449245014E-4	1.216410877E-2
3.09	9.658761749E-4	2.500952745E-4	1.187641793E-2
3.1	2.705574854E-4	-1.563016455E-4	1.118410895E-2
3.11	-3.245686878E-5	2.055950136E-4	1.057972669E-2
3.12	-6.932748378E-4	-4.722138534E-4	9.533598909E-3
3.13	-3.728204333E-4	-1.618344897E-4	1.020410912E-2
3.14	-3.391444925E-5	1.636904214E-4	1.020410912E-2
3.15	-6.730518060E-4	-1.710112321E-4	9.872763215E-3
3.16	3.938397906E-7	-2.090405709E-4	9.224108922E-3
3.17	9.141919396E-4	-1.126367692E-3	9.224108922E-3
3.18	2.699634970E-4	-4.922138194E-4	9.577260806E-3
3.19	6.167104842E-4	-8.490358004E-4	9.843608465E-3
3.2	1.212309357E-3	-1.462213755E-3	9.591859684E-3
3.21	4.512185197E-4	-1.458387222E-3	1.020410912E-2
3.22	-7.425323880E-4	-1.444412746E-3	9.821858118E-3
3.23	-7.324584057E-4	-1.420290287E-3	8.834607938E-3
3.24	-3.337302252E-4	-1.390068341E-3	7.847357931E-3
3.25	-1.522516079E-4	-1.368090710E-3	7.668174000E-3
3.2600000000000002	-7.122348761E-4	-1.358015822E-3	9.066920434E-3
3.27	-1.116544674E-3	-1.347941818E-3	9.785453261E-3
3.2800000000000002	-8.233130757E-4	-1.333521830E-3	8.798203099E-3
3.29	-1.551689547E-4	-1.308953951E-3	7.810953080E-3
3.3000000000000003	1.708975472E-4	-1.283225951E-3	7.704515225E-3
3.31	1.219863306E-3	-1.263077972E-3	8.244109096E-3
3.3200000000000003	3.121815814E-4	-1.233643290E-3	6.879175076E-3
3.33	-1.598597260E-3	-1.188626520E-3	5.304109111E-3
3.34	-1.187333174E-3	-1.152630940E-3	6.243230821E-3
3.35	3.189708280E-4	-1.132482968E-3	6.787298098E-3
3.36	2.986276827E-4	-1.117274383E-3	6.284109073E-3
3.37	-1.827039948E-4	-1.097173677E-3	5.792797876E-3
3.38	-1.679694387E-4	-1.072037489E-3	5.802748890E-3
3.39	-1.920727949E-4	-1.057050876E-3	6.284109073E-3
3.4	-6.564329142E-4	-1.046976912E-3	7.310540739E-3
3.41	3.685663156E-4	-1.036902948E-3	7.723643142E-3
3.42	2.342895040E-4	-1.016059237E-3	6.208676974E-3
3.43	-6.564329142E-4	-9.912961325E-4	4.774601773E-3
3.44	-1.251986095E-4	-9.711464627E-4	4.334109126E-3
3.45	-2.403596144E-4	-9.509988423E-4	4.878035827E-3
3.46	-1.209920566E-4	-9.251688023E-4	5.304109111E-3
3.47	-2.532848186E-4	-9.007011453E-4	5.304109111E-3
3.48	4.629878600E-4	-8.805531783E-4	5.304109111E-3
3.49	-1.021395965E-3	-8.722138258E-4	4.731392273E-3
3.5	-3.156521044E-3	-8.662346168E-4	4.334109126E-3
3.5100000000000002	-2.902986212E-3	-8.622138428E-4	4.334109126E-3
3.52	-2.471924041E-3	-8.499593985E-4	4.334109126E-3
3.5300000000000002	-6.455088342E-4	-8.360119994E-4	4.334109126E-3
3.54	-1.389073465E-4	-8.196622711E-4	4.334109126E-3
3.5500000000000003	-4.964329066E-4	-7.995123448E-4	4.950132416E-3
3.56	1.341205997E-3	-7.793632082E-4	5.304109111E-3
3.5700000000000003	1.083206531E-3	-7.722138094E-4	4.673677811E-3
3.58	-2.440403783E-4	-7.656405478E-4	3.689928445E-3
3.59	-5.697856373E-4	-7.555665843E-4	4.650323563E-3
3.6	-5.597116579E-4	-7.454926204E-4	5.304109111E-3
3.61	-1.867909352E-3	-7.422138604E-4	3.979042248E-3
3.62	-2.465825279E-3	-7.422138604E-4	2.680927991E-3
3.63	-1.088411716E-3	-7.283252792E-4	3.735186072E-3
3.64	1.803465761E-4	-7.151950817E-4	3.646273500E-3
3.65	1.137268676E-3	-7.122138182E-4	4.049085543E-3
3.66	1.392068291E-3	-7.050475835E-4	4.334109126E-3
3.67	-2.836435044E-5	-6.877325117E-4	3.624523127E-3
3.68	-5.664328809E-4	1.267833232E-5	1.920437019E-3
3.69	-1.268463749E-3	-4.416345073E-4	4.283520388E-3
3.7	-7.775943740E-4	7.332221049E-4	5.304109111E-3
3.71	-1.981225079E-3	1.210248322E-3	2.356836007E-3
3.72	-2.336844820E-4	4.465709225E-4	2.140100146E-3
3.73	-1.027542615E-3	2.077861498E-4	1.620868330E-3
3.74	-1.453148906E-3	2.000248144E-4	3.675941675E-3
3.75	8.259109740E-4	1.899504804E-4	3.566213669E-3
3.7600000000000002	-8.477786628E-4	1.798777438E-4	1.804062023E-3
3.77	-6.740682375E-4	-5.965952113E-4	1.394109371E-3
3.7800000000000002	-1.258021153E-3	-8.002714656E-4	1.394109371E-3
3.79	-1.430169691E-3	-1.344944660E-5	2.987901228E-3
3.8000000000000003	-6.222868106E-4	1.513750067E-4	2.549963116E-3
3.81	-2.052918976E-3	9.427483780E-4	1.562585411E-3
3.8200000000000003	-2.361367534E-3	2.889855458E-4	3.031710450E-3
3.83	-1.521953090E-3	9.454077012E-4	1.702007960E-3
3.84	-1.366432872E-3	2.644852977E-4	1.394109371E-3
3.85	-1.340701765E-3	9.326059172E-4	1.394109371E-3
3.86	-4.799807947E-4	2.286361012E-4	1.394109371E-3
3.87	-3.464329053E-4	8.906114104E-5	2.249160381E-3
3.88	4.896029825E-4	7.898577716E-5	4.098983190E-3
3.89	5.769434476E-4	6.891160696E-5	5.194940259E-3
3.9	1.423677254E-3	5.883762608E-5	4.436101879E-3
3.91	-1.101983114E-3	-8.173972725E-4	3.449903268E-3
3.92	-4.949768818E-4	-9.122138510E-4	2.462653188E-3
3.93	-1.277627645E-3	-8.847023990E-4	4.171521469E-3
3.94	-2.206922358E-3	-8.637249373E-4	4.334109126E-3
3.95	-2.229833400E-3	4.181637937E-5	4.334109126E-3
3.96	-1.287182057E-3	-8.032871827E-4	3.413643354E-3
3.97	-2.106946063E-3	-8.432780185E-4	4.281961775E-3
3.98	-2.766689202E-4	-8.326718507E-4	2.463887156E-3
3.99	7.173222286E-4	-8.322138006E-4	3.316322036E-3
4.0	7.438772199E-4	-8.128341096E-4	3.354109208E-3
4.01	7.240362127E-4	-7.926830103E-4	3.354109208E-3
4.0200000000000005	-2.210197165E-4	-7.725349185E-4	4.318374829E-3
4.03	-1.178208485E-3	-7.722138094E-4	4.334109126E-3
4.04	-2.076669729E-4	-7.422516377E-4	5.302887641E-3
4.05	-1.170416811E-3	-7.480457976E-4	2.380125300E-3
4.0600000000000005	-2.355545786E-4	-1.692078368E-3	3.354109208E-3
4.07	-3.044765455E-3	-1.661275419E-3	3.374628777E-3
4.08	-1.123213959E-3	-6.822138692E-4	4.334109126E-3
4.09	-2.034997312E-3	-6.814960959E-4	4.334109126E-3
4.1	-1.911591018E-3	-6.613480778E-4	4.376097209E-3
4.11	-3.643291317E-5	-6.412001490E-4	5.205273915E-3
4.12	1.816495941E-5	-6.216330040E-4	3.411030389E-3
4.13	8.407054465E-4	-6.109042300E-4	4.397625577E-3
4.14	-1.956537167E-4	-5.922138358E-4	5.233405348E-3
4.15	-1.960802380E-3	-5.906051450E-4	4.412934922E-3
4.16	-1.726037807E-3	-7.373389628E-4	5.314109111E-3
4.17	-4.499740971E-5	-2.354126192E-3	5.314109111E-3
4.18	-8.843802793E-4	-1.320611426E-3	5.314109111E-3
4.19	-9.687578114E-4	-4.311135620E-4	5.314109111E-3
4.2	-1.678989565E-3	-4.222138452E-4	5.200189086E-3
4.21	-7.939333011E-4	-4.209640382E-4	4.465340030E-3
4.22	-5.222662837E-4	-5.353257662E-4	5.314109111E-3
4.23	1.273559192E-3	-1.339418247E-3	5.178525915E-3
4.24	2.064736569E-3	-1.316326818E-3	4.486868477E-3
4.25	1.709058869E-3	-1.132278320E-3	5.465590301E-3
4.26	4.356708408E-5	-3.105941333E-4	6.135377716E-3
4.2700000000000005	-2.799273508E-4	-3.022138162E-4	5.149821365E-3
4.28	-1.687898352E-3	-2.986784837E-4	4.515573025E-3
4.29	-1.202717513E-3	-2.822138502E-4	5.314109111E-3
4.3	-2.540877925E-3	-2.802966399E-4	5.128140268E-3
4.3100000000000005	-1.517314283E-3	-2.722138206E-4	4.537254120E-3
4.32	-5.181769584E-4	-2.722138206E-4	5.314109111E-3
4.33	2.392887781E-4	-2.679355284E-4	5.314109111E-3
4.34	2.213536035E-4	-4.414708881E-5	5.314109111E-3
4.3500000000000005	4.241258758E-4	6.786314063E-4	5.314109111E-3
4.36	8.996633674E-4	6.454234826E-4	5.777191185E-3
4.37	-8.304082549E-5	4.038682894E-4	6.796526810E-3
4.38	-7.814116376E-4	-3.197032078E-4	5.314109111E-3
4.39	-1.260092619E-3	-3.122138458E-4	5.567400468E-3
4.4	-1.900003277E-3	-3.122138458E-4	6.294109056E-3
4.41	-1.344224098E-5	-3.122138458E-4	5.760951436E-3
4.42	-9.575882405E-4	-3.094057152E-4	4.616496972E-3
4.43	-5.283514852E-4	-2.993317178E-4	5.314109111E-3
4.44	1.604174622E-3	-2.922138332E-4	5.603805316E-3
4.45	5.023330427E-4	-2.891837734E-4	5.997162714E-3
4.46	5.444862957E-4	-2.822138502E-4	5.314109111E-3
4.47	-4.813423534E-4	-2.758577932E-4	5.314109111E-3
4.48	-1.354222120E-4	-2.622138376E-4	5.632855945E-3
4.49	-4.569869576E-4	5.390453745E-5	5.968008004E-3
4.5	1.801655340E-4	3.578364756E-4	5.980811507E-3
4.51	-4.798313290E-4	-2.787383163E-4	6.592906467E-3
4.5200000000000005	-1.685132509E-3	-2.686637631E-4	5.314109111E-3
4.53	-1.621061508E-3	-2.622138376E-4	5.314109111E-3
4.54	-1.210383748E-3	-2.548189094E-4	5.314109111E-3
4.55	-5.751167742E-4	-2.384418056E-4	5.314109111E-3
4.5600000000000005	-1.909677566E-4	-2.245198339E-4	5.314109111E-3
4.57	2.499472010E-5	-2.082928535E-4	5.314109111E-3
4.58	2.046201394E-4	-1.982188806E-4	5.314109111E-3
4.59	1.321360200E-3	-1.922138401E-4	4.919421532E-3
4.6000000000000005	4.998396639E-4	-1.922138401E-4	4.344109109E-3
4.61	-2.358268740E-4	-1.922138401E-4	4.344109109E-3
4.62	-9.413128181E-5	-1.879222757E-4	4.760390596E-3
4.63	-1.046878375E-3	-1.778473999E-4	4.890564307E-3
4.64	-7.194314361E-4	-1.677734258E-4	4.774830057E-3
4.65	-4.996550426E-4	-1.576994388E-4	5.314109111E-3
4.66	-6.508748363E-4	-1.476254516E-4	5.314109111E-3
4.67	3.842423368E-4	-1.375514753E-4	5.314109111E-3
4.68	8.235198479E-4	-1.322138489E-4	4.854683616E-3
4.69	8.424587381E-4	-1.274027627E-4	4.810784173E-3
4.7	3.137953175E-4	-1.222138426E-4	5.314109111E-3
4.71	2.986072199E-4	-1.271737074E-4	4.833002522E-3
4.72	-1.796141010E-4	-1.271800032E-4	4.832391836E-3
4.73	-1.611132680E-4	-1.222138426E-4	4.818572223E-3
4.74	-1.940372194E-4	-1.222138426E-4	3.836138090E-3
4.75	-6.459181896E-4	-1.169564803E-4	4.389294153E-3
4.76	-1.246242976E-4	-1.175451794E-4	4.796969154E-3
4.7700000000000005	-1.953436898E-4	-1.222138426E-4	3.814387735E-3
4.78	-1.104199858E-4	-1.222138426E-4	3.901080678E-3
4.79	3.124605156E-4	-1.222138426E-4	4.344109109E-3
4.8	-2.422774094E-4	-1.278411090E-4	3.792637388E-3
4.8100000000000005	4.339071177E-4	-6.852344734E-4	2.805387292E-3
4.82	6.917298007E-4	-5.419288330E-4	2.950170318E-3
4.83	8.293910841E-4	-6.938886541E-4	3.937485521E-3
4.84	6.823882140E-5	-5.115873266E-4	2.596304989E-3
4.8500000000000005	-1.444634059E-4	-1.182135257E-4	2.576047334E-3
4.86	-9.225142198E-4	-7.052544947E-4	3.959296474E-3
4.87	-1.670285244E-3	-1.672390126E-3	3.139165728E-3
4.88	-1.050429414E-3	-1.426210280E-3	2.384109179E-3
4.89	-1.287168044E-3	-4.414787089E-4	2.384109179E-3
4.9	-4.042402293E-4	-7.064952633E-4	1.759827712E-3
4.91	2.971228808E-4	-1.062213782E-3	2.035640767E-3
4.92	2.870488938E-4	-4.234321253E-4	2.384109179E-3
4.93	9.230067274E-4	-7.216534805E-4	1.731485315E-3
4.94	6.002851470E-4	-1.692163414E-3	2.054057316E-3
4.95	2.668269618E-4	-1.344941630E-3	2.384109179E-3
4.96	-1.058577213E-3	-1.015398622E-3	1.709406804E-3
4.97	-3.398391475E-4	-1.005324127E-3	2.076185439E-3
4.98	-4.049422996E-4	-1.684650478E-3	1.694708994E-3
4.99	-1.367624454E-5	-1.285379689E-3	1.394109371E-3
5.0	2.664550288E-4	-9.779897206E-4	2.098202769E-3
5.01	2.635670829E-4	-2.822893613E-4	2.384109179E-3
5.0200000000000005	9.606361459E-4	-7.238052055E-4	1.665256794E-3
5.03	5.047255264E-4	-2.733723054E-4	1.394109371E-3
5.04	-4.678183505E-4	-2.703437385E-5	1.394109371E-3
5.05	-7.089494078E-4	-3.969731560E-5	6.607286255E-4
5.0600000000000005	-6.988758289E-4	-4.977090331E-5	4.141091727E-4
5.07	-6.964328929E-4	-5.221384507E-5	-3.338503917E-4
5.08	-6.810196918E-4	-5.992043665E-5	1.707554948E-3
5.09	-6.764328803E-4	-6.999441178E-5	1.621612701E-3
5.1000000000000005	7.772325367E-5	-7.221383438E-5	2.173976935E-3
5.11	2.756382220E-4	-7.221383438E-5	8.221230235E-4
5.12	1.041929809E-3	-7.221383438E-5	1.198479608E-3
5.13	4.419158505E-4	-8.029191322E-5	6.024579824E-4
5.14	2.454150172E-4	-8.221384067E-5	1.213010650E-3
5.15	-2.150209194E-3	-9.043988121E-5	1.394109371E-3
5.16	-1.039629778E-3	-1.005138680E-4	1.394109371E-3
5.17	9.759731101E-5	-1.105891539E-4	5.733283484E-4
5.18	1.073173548E-3	-1.122138363E-4	-1.242003003E-3
5.19	-4.385216946E-4	-1.122138363E-4	1.247214930E-4
5.2	9.892837891E-5	-1.208113551E-4	4.141091727E-4
5.21	-1.448702668E-3	-1.222138426E-4	-4.356970731E-4
5.22	-1.688941933E-3	-1.309593231E-4	2.911657465E-4
5.23	-8.131693033E-4	-1.410346782E-4	4.141091727E-4
5.24	1.574880731E-4	-1.422138319E-4	4.141091727E-4
5.25	2.545980858E-4	-1.511828290E-4	4.141091727E-4
5.26	2.445255218E-4	-1.612553930E-4	-4.719624846E-4
5.2700000000000005	2.012228995E-3	-1.713306643E-4	-5.658906527E-4
5.28	3.729531821E-4	-1.722138508E-4	-5.658906527E-4
5.29	2.043021757E-4	-1.722138508E-4	3.420708242E-4
5.3	-1.608178448E-3	-1.722138508E-4	-1.416314278E-3
5.3100000000000005	8.995248830E-5	-1.722138508E-4	-6.232836113E-4
5.32	-7.166658375E-4	-1.722138508E-4	-2.425330751E-3
5.33	-7.664329136E-4	-1.817746724E-4	-1.588928747E-3
5.34	1.779279557E-4	-1.822138338E-4	-1.545890851E-3
5.3500000000000005	-7.283390727E-4	-1.919242130E-4	3.573422931E-4
5.36	-7.564328841E-4	-2.019982006E-4	-1.503624301E-3
5.37	1.156385188E-3	-2.022138464E-4	-5.796217144E-4
5.38	-7.433042442E-4	-2.022138464E-4	4.074771804E-4
5.39	2.135592051E-4	-1.922295792E-4	4.125667384E-4
5.4	1.957789445E-4	-2.122138294E-4	-1.553759289E-3
5.41	-7.511613400E-4	-2.122138294E-4	-2.495347895E-3
5.42	2.135670747E-4	-2.124436422E-4	-5.884123017E-4
5.43	2.132632334E-4	-2.225176777E-4	-1.516114347E-3
5.44	2.031877426E-4	-2.322138420E-4	-6.030668449E-4
5.45	1.495941578E-4	-2.322138420E-4	-1.590317117E-3
5.46	-7.764328967E-4	-2.322138420E-4	-2.422538187E-3
5.47	-7.770341864E-4	-2.328151331E-4	-6.837436652E-4
5.48	-7.857576088E-4	-2.422138483E-4	-2.393537711E-3
5.49	-7.764328967E-4	-2.422138483E-4	-7.127441448E-4
5.5	-6.965792408E-4	-2.422138483E-4	-2.606567894E-3
5.51	1.074209898E-4	-2.431112019E-4	-3.242068097E-3
5.5200000000000005	-8.607914783E-4	-2.531866007E-4	-7.565533798E-4
5.53	-1.633851309E-3	-2.622138376E-4	-2.423309526E-3
5.54	-5.390111866E-4	-2.622138376E-4	-1.655722454E-3
5.55	1.065272006E-3	-3.793140143E-4	-2.525891048E-3
5.5600000000000005	7.162150575E-5	-1.240943573E-3	-2.525891048E-3
5.57	-6.373852133E-4	-1.100477587E-3	-2.262418607E-3
5.58	1.921488564E-4	-3.926184099E-4	-8.438634049E-4
5.59	1.820748697E-4	-1.240721629E-3	-2.525891048E-3
5.6000000000000005	1.735670728E-4	-1.384134171E-3	-2.372404434E-3
5.61	3.310234004E-4	-2.041477132E-3	-1.385154150E-3
5.62	7.993075945E-4	-1.385058166E-3	-7.338775054E-4
5.63	-6.429568121E-4	-1.996949367E-3	-1.721155370E-3
5.64	1.517033958E-4	-1.011436246E-3	-2.343249731E-3
5.65	-4.183565432E-4	-4.101675988E-4	-1.545890851E-3
5.66	-2.362149892E-3	-1.188190533E-3	-1.545890851E-3
5.67	-3.939064708E-4	-1.172213782E-3	-1.545890851E-3
5.68	1.129247840E-3	-1.172213782E-3	-1.334249053E-3
5.69	8.946406565E-4	-1.388906197E-3	-1.003743485E-3
5.7	-3.144071671E-4	-1.913608318E-3	-2.299594727E-3
5.71	-1.572886499E-3	-1.152213816E-3	-1.312344436E-3
5.72	-5.880934701E-4	-1.152213816E-3	-8.066872126E-4
5.73	-1.019484233E-4	-9.041672200E-4	-1.297844196E-3
5.74	-8.238277939E-4	-4.223004595E-4	-3.105939514E-4
5.75	-8.137534088E-4	-8.723051582E-4	-3.736553702E-4
5.76	-5.420325212E-4	-1.622138445E-4	-2.255982275E-3
5.7700000000000005	1.563945379E-4	-1.622138445E-4	-9.917094838E-4
5.78	1.635670781E-4	-4.437627347E-4	1.296577688E-4
5.79	-1.251579592E-4	-8.405122534E-4	-5.658906527E-4
5.8	-5.105317373E-4	-4.511655332E-4	-5.658906527E-4
5.8100000000000005	4.666443961E-4	-8.322610386E-4	-8.720925429E-4
5.82	8.200658161E-4	-1.690148563E-4	-9.188883242E-4
5.83	1.502930375E-4	-1.654878905E-4	-2.276034440E-4
5.84	-5.026017203E-4	-1.688658238E-4	-1.545890851E-3
5.8500000000000005	-1.447654359E-3	-1.656358522E-4	-8.751777599E-4
5.86	-1.132047627E-3	-1.757098313E-4	4.141091727E-4
5.87	-1.752862927E-3	-1.857838032E-4	-6.354612409E-4
5.88	-1.385681963E-3	-1.922138401E-4	-1.454570238E-3
5.89	-1.109691689E-3	-1.959323563E-4	7.785236040E-4
5.9	-9.629100974E-4	-2.022138464E-4	1.022347904E-3
5.91	-1.254444308E-4	-2.022138464E-4	7.931207701E-4
5.92	-3.519956079E-4	-2.061552849E-4	1.394109371E-3
5.93	-1.619138227E-4	-2.122138294E-4	1.000597535E-3
5.94	-3.397604577E-4	-2.122138294E-4	4.141091727E-4
5.95	-1.661181189E-4	-2.163772197E-4	8.221212468E-4
5.96	-1.133284273E-3	-2.179757977E-4	9.787818308E-4
5.97	-1.677807056E-3	-2.122138294E-4	4.141091727E-4
5.98	-1.657659128E-3	2.089289441E-4	-1.580735324E-5
5.99	-7.764234917E-4	3.150122120E-4	-1.286552142E-4
6.0	-1.363982832E-4	-2.267495641E-4	4.141091727E-4
6.01	2.232144277E-4	-2.322138420E-4	1.322194818E-3
6.0200000000000005	7.998113323E-4	-2.368982462E-4	1.925037845E-3
6.03	2.735670892E-4	2.098324507E-4	1.399350882E-3
6.04	-1.951721041E-4	2.390469512E-4	1.398941635E-3
6.05	-6.915257848E-4	-2.622138376E-4	1.885006578E-3
6.0600000000000005	-2.082458931E-4	-2.622138376E-4	1.890978913E-3
6.07	-2.116462193E-4	-2.622138376E-4	1.399163573E-3
6.08	-1.173620027E-3	-2.622138376E-4	1.404109167E-3
6.09	-1.615623754E-3	-2.622138376E-4	2.423753489E-3
6.1000000000000005	-1.074002151E-3	-2.622138376E-4	2.846955532E-3
6.11	-9.801166601E-5	-2.675656311E-4	1.859632521E-3
6.12	-6.981832980E-4	-2.722138206E-4	1.935835939E-3
6.13	-1.026456484E-3	-2.722138206E-4	2.923086074E-3
6.140000000000001	-4.126913466E-5	-2.666392074E-4	2.271483134E-3
6.15	3.779177721E-4	-2.622138376E-4	1.404109167E-3
6.16	9.230019721E-4	-2.622138376E-4	1.404109167E-3
6.17	-3.476387311E-4	-2.622138376E-4	2.540372405E-3
6.18	1.423674685E-4	-2.622138376E-4	2.788636892E-3
6.19	7.548341652E-4	-2.681606246E-4	2.384109179E-3
6.2	3.535670697E-4	-2.661930530E-4	3.564181583E-3
6.21	-8.227213315E-4	-2.622138376E-4	3.746822807E-3
6.22	-3.675502101E-4	-2.622138376E-4	1.550785245E-3
6.23	-2.156772917E-4	-2.622138376E-4	2.871023752E-3
6.24	2.997038080E-5	-2.558971326E-4	3.725072467E-3
6.25	3.771753820E-4	-2.522138313E-4	2.737723793E-3
6.26	9.877628214E-4	-2.586790541E-4	3.017700625E-3
6.2700000000000005	6.761394806E-4	-2.491344995E-4	4.004997047E-3
6.28	3.335670804E-4	-2.488269941E-4	3.696019770E-3
6.29	3.201938618E-4	-2.388406283E-4	4.667997130E-3
6.3	3.068054289E-4	-2.322138420E-4	3.995587341E-3
6.3100000000000005	-1.009178539E-3	-2.322138420E-4	3.364109191E-3
6.32	-9.322826967E-4	-2.322138420E-4	2.009630008E-3
6.33	-6.194487958E-4	-2.391979485E-4	2.088551186E-3
6.34	-1.294008871E-3	-9.268478848E-4	2.384109179E-3
6.3500000000000005	-8.773805634E-4	-1.212213807E-3	2.384109179E-3
6.36	-1.288364227E-3	-4.986595874E-4	1.677762549E-3
6.37	-8.355545052E-4	-2.222138357E-4	2.117705938E-3
6.38	-5.737884828E-4	-9.430606842E-4	9.424155847E-4
6.390000000000001	-5.690115048E-4	-4.823396235E-4	1.151404810E-3
6.4	1.537562451E-4	-9.524030029E-4	2.139302279E-3
6.41	3.859891803E-4	-4.495792219E-4	2.384109179E-3
6.42	3.759143576E-4	-9.468737910E-4	2.384109179E-3
6.43	3.735670590E-4	-1.906168795E-3	2.384109179E-3
6.44	3.813677753E-4	-1.357745881E-3	8.290481661E-5
6.45	-3.803098162E-4	-1.142213833E-3	-5.658906527E-4
6.46	-1.341587952E-3	-1.134264845E-3	1.000062376E-3
6.47	-3.069063489E-3	-3.458378465E-4	2.190485171E-3
6.48	-3.405946601E-3	-1.603111053E-4	1.590577487E-3
6.49	-2.579209857E-3	-1.622138445E-4	6.032307972E-4
6.5	-7.801193251E-4	-9.538775754E-4	2.848579572E-3
6.51	1.169419464E-3	-1.105572844E-3	2.548702245E-3
6.5200000000000005	2.282770456E-3	-2.878230503E-4	1.561322596E-3
6.53	1.586565600E-3	-1.237438293E-4	1.404109167E-3
6.54	2.245118860E-3	-9.508509062E-4	2.241288907E-3
6.55	6.858687223E-4	-2.476735324E-4	6.950287149E-4
6.5600000000000005	-4.121688037E-4	-1.122138363E-4	1.275920976E-3
6.57	-5.364328853E-4	-1.122138363E-4	1.404109167E-3
6.58	-5.275929817E-4	-1.210537604E-4	5.377972995E-4
6.59	-2.256001608E-3	-1.222138426E-4	-4.495905060E-4
6.6000000000000005	-1.567487501E-3	-1.401927407E-4	-5.558908559E-4
6.61	-1.448306049E-3	-1.512772726E-4	2.108759082E-3
6.62	-1.428158038E-3	-1.522138382E-4	1.488642455E-3
6.63	2.129166125E-3	-1.522138382E-4	2.306826050E-3
6.640000000000001	2.405710922E-3	-1.614992210E-4	5.641754338E-4
6.65	5.594833411E-4	-1.622138445E-4	1.341470639E-3
6.66	4.335670968E-4	-1.622138445E-4	4.794878468E-4
6.67	-4.792866745E-4	-1.622138445E-4	4.241093420E-4
6.68	-1.446388829E-3	-1.622138445E-4	-5.150125698E-4
6.69	-1.476776016E-3	-1.718707056E-4	3.904811297E-4
6.7	-2.381400562E-3	-1.819446706E-4	1.377731131E-3
6.71	-1.435756032E-3	-1.822138338E-4	4.432373086E-4
6.72	-4.481583558E-4	-1.920941926E-4	4.241093420E-4
6.73	5.191849501E-4	-1.822594810E-4	4.241093420E-4
6.74	1.496258661E-3	-1.822138338E-4	-1.530337399E-3
6.75	2.433335552E-3	-1.723916551E-4	4.241093420E-4
6.76	1.443214422E-3	7.606855361E-4	4.241093420E-4
6.7700000000000005	1.398789727E-3	-1.922138401E-4	4.731634244E-4
6.78	4.332427885E-4	-1.928624543E-4	2.288438530E-3
6.79	3.456038984E-4	-2.122138294E-4	-5.654908496E-4
6.8	-1.525485297E-3	-2.122138294E-4	-5.094591924E-4
6.8100000000000005	-1.452751185E-3	-2.127616025E-4	3.704276033E-4
6.82	-5.867430338E-4	-2.228355900E-4	-5.558908559E-4
6.83	-1.495041371E-3	-2.322138420E-4	-4.195269249E-4
6.84	-1.401000749E-3	-2.337532723E-4	1.328677056E-3
6.8500000000000005	-3.327559024E-4	-2.522138313E-4	3.414271237E-4
6.86	1.441731371E-3	-2.531316535E-4	-3.759978079E-4
6.87	1.324243847E-3	-2.612206050E-4	1.306772449E-3
6.88	5.270866725E-4	-2.522138313E-4	3.184553155E-4
6.890000000000001	1.280588926E-3	-2.533550256E-4	-5.658906527E-4
6.9	4.023516914E-4	-2.609984716E-4	-4.455694946E-4
6.91	2.054644722E-5	-2.522138313E-4	5.506007472E-4
6.92	-2.361326537E-3	-2.522138313E-4	1.001519709E-3
6.93	-1.644547191E-3	-2.522138313E-4	-1.545890851E-3
6.94	-2.169949235E-3	-2.522138313E-4	-1.396136362E-3
6.95	-6.619247855E-4	-2.522138313E-4	-7.129694085E-4
6.96	-1.162609391E-3	-2.522138313E-4	-1.218746080E-3
6.97	2.953095709E-4	-2.522138313E-4	4.241093420E-4
6.98	-1.573191393E-4	-2.540227120E-4	6.013795109E-4
6.99	1.237036241E-3	-2.640979840E-4	1.034815836E-3
7.0	4.316089609E-4	-2.702556938E-4	-5.558908559E-4
7.01	6.206818609E-4	-2.622138376E-4	-3.567439166E-4
7.0200000000000005	9.849853006E-4	-2.643199257E-4	2.156062632E-4
7.03	-5.442528356E-4	-2.743938998E-4	-3.500634466E-4
7.04	-9.715336367E-4	-5.008914280E-4	6.450412925E-4
7.05	-2.233472054E-3	-1.026241843E-3	1.175807607E-3
7.0600000000000005	-1.932729170E-3	-5.177655871E-4	1.885575491E-4
7.07	-2.197378755E-3	-1.016934409E-3	-5.558908559E-4
7.08	1.465912390E-3	-5.197142578E-4	-5.558908559E-4
7.09	1.438315957E-3	-1.239588298E-3	-2.985887290E-4
7.1000000000000005	8.970792405E-4	-1.226813907E-3	-1.077784037E-4
7.11	-2.600264454E-4	-9.402572251E-4	-1.271159193E-3
7.12	1.600585047E-4	-5.114205201E-4	-5.558908559E-4
7.13	-2.428991093E-4	-1.492824590E-3	-5.558908559E-4
7.140000000000001	-1.378527264E-4	-1.875509920E-3	-5.558908559E-4
7.15	-1.782034978E-3	-1.176071859E-3	3.469803419E-4
7.16	-2.115080774E-3	-1.159068833E-3	1.767694907E-3
7.17	-1.745452225E-3	-1.464452141E-3	1.086519805E-4
7.18	-1.750916465E-3	-2.115626861E-3	-5.558908559E-4
7.19	-4.364329154E-4	-2.095476822E-3	-2.257790144E-4
7.2	2.314059366E-4	-1.744851907E-3	-2.506144833E-4
7.21	1.155438560E-3	-7.576018082E-4	-8.466666497E-4
7.22	1.554791686E-3	-1.258042749E-4	-2.832054452E-4
7.23	2.691677989E-3	-8.467739244E-4	-1.545890851E-3
7.24	7.144658793E-4	-1.712054766E-3	-1.545890851E-3
7.25	-8.725717512E-4	-7.146331341E-4	-1.545890851E-3
7.26	-1.835785921E-3	-1.022138533E-4	-1.160986064E-3
7.2700000000000005	-2.792814056E-3	-1.022138533E-4	-9.441577770E-4
7.28	-2.571362777E-3	-1.022138533E-4	-1.935443817E-3
7.29	-1.782760656E-3	-1.063237159E-4	-1.313479341E-3
7.3	-1.118740838E-3	-1.122138363E-4	1.402739519E-5
7.3100000000000005	1.395632291E-3	-1.164732442E-4	-9.733124931E-4
7.32	2.490566856E-3	-1.222138426E-4	-1.111218920E-3
7.33	2.455937500E-3	-1.178064730E-4	-5.558908559E-4
7.34	2.424604325E-3	-1.122138363E-4	-1.438716434E-3
7.3500000000000005	1.962589528E-3	-1.167691676E-4	-2.079468773E-3
7.36	1.863351453E-3	-1.222138426E-4	-1.092218452E-3
7.37	8.270442334E-5	-1.034795712E-3	-1.026885708E-3
7.38	-2.013845488E-3	-1.125707715E-3	-1.545890851E-3
7.390000000000001	-1.952226328E-3	-1.022138533E-4	-1.545890851E-3
7.4	-2.436579304E-3	-1.022138533E-4	-1.058137012E-3
7.41	-1.441277813E-3	-1.022138533E-4	-1.045967922E-3
7.42	3.589706060E-5	-1.072894114E-4	-1.038485228E-3
7.43	5.135670540E-4	-1.122138363E-4	-1.060622414E-3
7.44	2.023390818E-3	-1.122138363E-4	-1.023909008E-3
7.45	2.868440316E-3	-1.175121242E-4	-5.558908559E-4
7.46	1.856340555E-3	-1.222138426E-4	-1.087745118E-3
7.47	8.651980626E-4	-1.276609493E-4	-2.079707079E-3
7.48	-1.120476201E-4	-1.377356405E-4	-1.984754441E-3
7.49	-5.408371165E-4	-1.422138319E-4	-2.094277572E-3
7.5	-1.630697057E-3	-1.478835981E-4	-1.970254201E-3
7.51	-3.012088518E-3	3.991854940E-4	-2.108777810E-3
7.5200000000000005	-2.264523489E-3	2.434668906E-4	-1.949936139E-3
7.53	-1.424649457E-3	-1.622138445E-4	-1.535890681E-3
7.54	-8.317956926E-4	-1.681795340E-4	-2.126493795E-3
7.55	7.294062480E-4	-1.782544581E-4	-1.927869681E-3
7.5600000000000005	2.074513029E-3	-1.760986228E-4	-2.141297820E-3
7.57	1.830932489E-3	-1.784020681E-4	-2.525891048E-3
7.58	1.441041861E-3	-1.759512500E-4	-2.525891048E-3
7.59	2.041572905E-4	-1.785510039E-4	-3.146932760E-3
7.6000000000000005	-1.756606067E-3	-1.886249823E-4	-2.877598689E-3
7.61	-3.072519722E-3	-1.922138401E-4	-2.525891048E-3
7.62	-2.743858742E-3	-1.987739833E-4	-2.525891048E-3
7.63	-2.383163500E-3	-2.022138464E-4	-1.869059370E-3
7.640000000000001	-1.061539063E-3	-2.022138464E-4	-2.857493020E-3
7.65	-4.164329028E-4	-2.089964574E-4	-2.834411126E-3
7.66	-4.095762950E-4	-2.053572375E-4	-2.515890879E-3
7.67	9.313804586E-4	-2.022138464E-4	-1.157282452E-3
7.68	1.502551922E-3	-2.092188712E-4	-1.935883221E-3
7.69	2.166134741E-3	-2.192934943E-4	-1.832084184E-3
7.7	1.041363327E-3	-2.293679408E-4	-2.246992848E-3
7.71	1.184580614E-3	-2.322138420E-4	-3.942371753E-3
7.72	-6.712093560E-4	-2.249122001E-4	-3.054770047E-3
7.73	-1.449056875E-3	-2.295898835E-4	-2.525891048E-3
7.74	-2.884513995E-3	-2.322138420E-4	-3.256107945E-3
7.75	-3.353859711E-3	-2.322138420E-4	-2.760975722E-3
7.76	-2.586514692E-3	-2.246146553E-4	-4.757649543E-3
7.7700000000000005	-1.594425938E-3	-2.222138357E-4	-3.961876719E-3
7.78	8.880957326E-4	-2.222138357E-4	-4.265147737E-3
7.79	1.527924050E-3	-2.300353424E-4	-2.952876627E-3
7.8	2.281652740E-3	-9.981961956E-4	-2.525891048E-3
7.8100000000000005	1.686463280E-3	-4.210521381E-4	-2.525891048E-3
7.82	1.467477027E-3	-1.002580605E-3	-2.525891048E-3
7.83	-1.196377897E-4	-1.971637660E-3	-1.730228956E-3
7.84	-1.281151948E-3	-2.144020734E-3	-1.545890851E-3
7.8500000000000005	-3.060223369E-3	-5.136225289E-4	-3.166214900E-3
7.86	-1.744926503E-3	-1.790356408E-3	-1.862725201E-3
7.87	-2.215976306E-3	-1.279005335E-3	-7.110986368E-4
7.88	-7.022993254E-4	-1.113723311E-3	-2.220024440E-3
7.890000000000001	-4.064328965E-4	-2.643325120E-4	-2.515890879E-3
7.9	1.269424212E-3	-9.687808313E-4	-1.669323689E-3
7.91	6.710375289E-4	-1.093501403E-3	-2.398420521E-3
7.92	3.091623141E-3	-1.935708319E-3	-1.664823619E-3
7.930000000000001	8.208942779E-4	-3.155791776E-4	-1.545890851E-3
7.94	-3.653308992E-4	-1.834688528E-3	-2.421596317E-3
7.95	4.075290246E-4	-1.159241906E-3	-7.509372203E-4
7.96	-2.139431053E-3	-1.630494738E-4	-2.345137274E-3
7.97	-3.267260988E-3	-1.857974232E-3	-1.619273849E-3
7.98	-1.527756632E-3	-2.127694671E-4	-2.440613046E-3
7.99	-1.357821206E-3	-9.648803361E-4	-6.919461725E-4
8.0	-4.278306561E-4	-1.129914267E-4	-5.558908559E-4
8.01	5.318195954E-4	-6.166912969E-5	-5.558908559E-4
8.02	1.488713410E-3	-6.221383972E-5	-5.558908559E-4
8.03	1.504757180E-3	-9.937314659E-4	3.852302409E-4
8.040000000000001	2.413234908E-3	-9.351396538E-5	4.241093420E-4
8.05	5.225612468E-4	-6.221383972E-5	4.241093420E-4
8.06	4.637402659E-4	-7.204066067E-5	-5.389198197E-4
8.07	-4.968138606E-4	-6.231300492E-5	-5.558908559E-4
8.08	-2.421597424E-3	-6.221383972E-5	4.216412163E-4
8.09	-1.426384067E-3	-6.226263604E-5	4.241093420E-4
8.1	-1.416310104E-3	-8.412316893E-5	3.878902263E-4
8.11	-1.368261860E-3	-1.022931540E-3	-2.448565177E-3
8.120000000000001	5.332963288E-4	-6.221383972E-5	1.404109167E-3
8.13	5.901084238E-4	-6.221383972E-5	1.336533501E-3
8.14	2.452306151E-3	-1.029804532E-4	-5.558908559E-4
8.15	2.373647299E-3	-9.837768726E-4	-5.558908559E-4
8.16	1.357879940E-3	-5.278208072E-5	-5.002037211E-4
8.17	3.712721160E-4	-6.221383972E-5	4.241093420E-4
8.18	-6.051878457E-4	-6.221383972E-5	4.942966884E-4
8.19	-1.571511558E-3	-6.221383972E-5	1.326659559E-3
8.2	-2.442969959E-3	-6.394530534E-5	5.089511382E-4
8.21	-2.313401107E-3	-8.221384067E-5	1.404109167E-3
8.22	-1.317090836E-3	1.408712362E-5	1.404109167E-3
8.23	-2.265115389E-4	7.611939482E-4	1.510701374E-3
8.24	1.378563084E-3	-1.133754930E-4	2.384109179E-3
8.25	6.209526021E-4	-1.222138426E-4	2.384109179E-3
8.26	1.323894544E-3	-1.222138426E-4	2.255746457E-3
8.27	4.607967458E-4	-1.235990159E-4	1.539856067E-3
8.28	3.020291846E-4	6.405740758E-6	2.384109179E-3
8.290000000000001	-8.223277671E-4	6.675390107E-4	2.083614934E-3
8.3	-2.446790179E-3	-1.622138445E-4	8.966011781E-4
8.31	-2.224961054E-3	-1.622138445E-4	3.364109191E-3
8.32	-1.034192897E-3	-1.622138445E-4	3.364109191E-3
8.33	3.979499635E-4	-1.603844982E-4	3.364109191E-3
8.34	-3.864329072E-4	-1.541184515E-4	3.364109191E-3
8.35	-3.844543128E-4	2.773109743E-5	3.364109191E-3
8.36	1.560866272E-5	5.986864870E-4	3.162956967E-3
8.370000000000001	1.727083517E-3	-1.722138508E-4	2.800913901E-3
8.38	2.219112401E-3	-1.722138508E-4	4.128456668E-3
8.39	1.416742433E-3	-1.699389748E-4	3.364109191E-3
8.4	1.160910036E-3	-1.622138445E-4	3.364109191E-3
8.41	1.708580980E-4	-1.622138445E-4	3.601666242E-3
8.42	-1.268372212E-3	-1.597158101E-4	4.344109109E-3
8.43	-3.144087412E-3	-1.522138382E-4	4.092051822E-3
8.44	-2.370556877E-3	-1.495678421E-4	3.623416619E-3
8.45	-2.315552986E-3	-1.422138319E-4	4.077551586E-3
8.46	-1.207796018E-3	-1.422138319E-4	3.637959973E-3
8.47	1.559219447E-3	-1.364748133E-4	4.622451660E-3
8.48	1.797311736E-3	-1.222138426E-4	5.602571254E-3
8.49	1.853089998E-3	-1.222138426E-4	5.998396776E-3
8.5	4.573841825E-4	-1.191223876E-4	5.314109111E-3
8.51	1.428508597E-4	-1.153792723E-4	5.314109111E-3
8.52	-1.954491022E-4	-1.189744259E-4	4.999885893E-3
8.53	-1.792914831E-4	-1.122138363E-4	4.665508481E-3
8.540000000000001	-1.768120538E-3	-1.122138363E-4	4.985481907E-3
8.55	-2.355655282E-3	-1.122138363E-4	4.344109109E-3
8.56	-1.619661256E-3	-1.086769303E-4	4.687189576E-3
8.57	-3.398103970E-6	-1.022138533E-4	5.314109111E-3
8.58	5.961961749E-4	-4.560174020E-4	5.314109111E-3
8.59	9.295264656E-4	-6.936918154E-4	5.314109111E-3
8.6	1.860167053E-3	-8.221384067E-5	4.942171425E-3
8.61	2.034911243E-3	-8.326247011E-4	4.344109109E-3
8.620000000000001	1.019312361E-3	-1.986284313E-3	4.344109109E-3
8.63	3.409600538E-5	-1.162986725E-3	4.737637182E-3
8.64	-9.247709818E-4	3.654898774E-6	4.913377239E-3
8.65	-1.863229657E-3	-2.213848516E-6	4.344109109E-3
8.66	-1.960046842E-3	-4.086517443E-4	4.759103622E-3
8.67	-1.359021044E-3	-5.256237086E-4	5.314109111E-3
8.68	-8.980777797E-4	-4.017132993E-4	4.450682364E-3
8.69	7.673725522E-5	-5.010364023E-4	4.241962182E-3
8.700000000000001	1.010029610E-3	3.778615338E-5	5.314109111E-3
8.71	1.912885499E-3	3.313480978E-5	5.314109111E-3
8.72	2.341039133E-3	-4.163945703E-4	5.314109111E-3
8.73	1.348103453E-3	-4.418816960E-4	5.314109111E-3
8.74	-1.394681868E-4	6.778615481E-5	5.314109111E-3
8.75	-6.165367840E-4	6.778615481E-5	4.834146882E-3
8.76	-1.540385397E-3	6.276490451E-5	4.831170366E-3
8.77	-1.462514337E-3	5.778615433E-5	4.819793885E-3
8.78	-1.484052911E-3	5.778615433E-5	3.837372153E-3
8.790000000000001	-1.881956191E-3	5.254138757E-5	3.364109191E-3
8.8	-1.374520418E-3	4.778615386E-5	4.401264869E-3
8.81	-8.124688034E-4	4.778615386E-5	4.790932158E-3
8.82	1.630539544E-4	4.231787062E-5	4.344109109E-3
8.83	1.108997586E-3	4.332841737E-5	4.344109109E-3
8.84	1.506718304E-3	4.216990902E-5	3.793717186E-3
8.85	9.302347432E-4	3.209593112E-5	3.921751224E-3
8.86	4.862744550E-4	2.778615873E-5	4.903237110E-3
8.870000000000001	-6.590411609E-4	3.362434250E-5	4.175662714E-3
8.88	-8.752161241E-4	3.778615338E-5	2.205324292E-3
8.89	1.022511761E-4	3.778615338E-5	2.577394283E-3
8.9	-6.801608437E-4	3.172507350E-5	3.958095287E-3
8.91	-1.418028723E-3	2.165143658E-5	4.344109109E-3
8.92	-7.917351678E-4	1.778615243E-5	3.735620495E-3
8.93	1.867970678E-4	1.150250995E-5	3.364109191E-3
8.94	5.372094339E-4	7.786157780E-6	2.741061786E-3
8.950000000000001	1.768435634E-3	6.187888523E-4	2.384109179E-3
8.96	1.809412389E-3	3.266447289E-4	2.384109179E-3
8.97	1.868253634E-4	-1.221384317E-5	2.384109179E-3
8.98	-4.764328941E-4	-1.886897126E-5	2.384109179E-3
8.99	-4.697038010E-4	-2.894295039E-5	1.724656928E-3
9.0	-4.664329110E-4	-3.221384412E-5	1.404109167E-3
9.01	-1.786735113E-3	-3.221384412E-5	2.751917748E-3
9.02	-2.372530745E-3	-3.916488750E-5	2.682906567E-3
9.03	-1.663819465E-3	-4.221383877E-5	1.695548038E-3
9.040000000000001	1.108011653E-5	-4.221383877E-5	1.404109167E-3
9.05	5.663925070E-4	-4.221383877E-5	7.010020638E-4
9.06	1.259317818E-3	-4.946124705E-5	4.241093420E-4
9.07	1.523567061E-3	-5.221384507E-5	1.141675384E-3
9.08	7.913129990E-4	-5.961034684E-5	1.404109167E-3
9.09	5.186260837E-4	-6.968432249E-5	1.404109167E-3
9.1	-2.108158300E-4	-7.221383438E-5	6.646350684E-4
9.11	-4.464328984E-4	-7.221383438E-5	1.170871380E-3
9.120000000000001	-1.192633703E-3	-7.221383438E-5	6.502156914E-4
9.13	-1.408665261E-3	-7.998147151E-5	1.185337166E-3
9.14	-2.151419532E-3	-8.221384067E-5	1.404109167E-3
9.15	-8.046632837E-4	-8.221384067E-5	6.282244955E-4
9.16	-3.964329135E-4	-9.020534589E-5	1.207276220E-3
9.17	1.168270407E-3	-1.002793333E-4	1.404109167E-3
9.18	7.377603548E-4	-9.407438638E-5	-1.912253576E-4
9.19	5.535670792E-4	-1.004272950E-4	1.053943968E-3
9.200000000000001	5.535670792E-4	-1.022138533E-4	5.919418237E-4
9.21	5.535670792E-4	-1.022138533E-4	4.241093420E-4
9.22	-2.562298542E-4	-1.022138533E-4	4.241093420E-4
9.23	-4.064328965E-4	-1.022138533E-4	4.241093420E-4
9.24	-4.064328965E-4	-1.107987596E-4	1.265431444E-3
9.25	4.248216144E-4	-1.122138363E-4	1.404109167E-3
9.26	-1.140612062E-3	-1.122138363E-4	5.482868307E-4
9.27	3.309053512E-4	-1.210207048E-4	-4.389634023E-4
9.28	1.416128099E-3	-1.222138426E-4	3.144320459E-4
9.290000000000001	2.383365639E-3	-1.222138426E-4	1.301820192E-3
9.3	-1.623340613E-4	-1.222138426E-4	5.191321441E-4
9.31	1.328917329E-3	-1.014441150E-3	-1.360345357E-3
9.32	1.476036358E-3	-2.120548416E-4	-6.365549407E-4
9.33	1.464314864E-3	-1.322138489E-4	3.508253715E-4
9.34	-3.550619249E-4	-1.046191446E-3	-4.898684943E-4
9.35	4.253945885E-4	-1.909860326E-4	-5.558908559E-4
9.36	-4.450570133E-4	-1.051362158E-3	-5.558908559E-4
9.370000000000001	4.298995198E-4	-1.092664005E-3	-5.558908559E-4
9.38	-4.599415330E-4	-1.490814099E-4	-5.558908559E-4
9.39	-5.061306708E-4	-1.122138363E-4	-5.558908559E-4
9.4	4.414279937E-4	-1.219856043E-4	-5.558908559E-4
9.41	4.537213211E-4	-1.087096541E-3	-1.530619326E-3
9.42	4.436473562E-4	-1.400006724E-4	-2.518023946E-3
9.43	4.435670798E-4	-1.111750994E-3	-3.505427705E-3
9.44	4.434978213E-4	-1.422138319E-4	-5.695348057E-4
9.450000000000001	4.057785539E-4	-1.562513423E-4	-2.497672783E-3
9.46	-1.506215692E-3	-1.101143414E-3	-5.773956578E-4
9.47	-1.552634723E-3	-1.807515852E-4	-1.545890851E-3
9.48	-3.318704094E-3	-1.096426031E-3	-1.509737850E-3
9.49	-4.764328941E-4	-1.948193628E-4	-5.558908559E-4
9.5	-3.765776167E-4	-1.072286137E-3	-6.572902988E-4
9.51	1.462978373E-3	-2.093175678E-4	-2.525891048E-3
9.52	1.452904402E-3	-1.057933865E-3	-2.460948442E-3
9.53	1.370637686E-3	-1.529504985E-4	-1.472961523E-3
9.540000000000001	4.535670628E-4	-1.622138445E-4	-6.361443249E-4
9.55	4.526823036E-4	-1.622138445E-4	-1.545890851E-3
9.56	3.513901510E-4	-1.631740214E-4	-1.356736092E-3
9.57	-7.170594788E-4	-1.722138508E-4	1.190328265E-4
9.58	-2.346727228E-3	-1.733219868E-4	-2.307587852E-3
9.59	-1.465250772E-3	-1.822138338E-4	-6.729206490E-4
9.6	-1.333335149E-3	-1.822138338E-4	-1.421536996E-3
9.61	-4.764328941E-4	-1.822138338E-4	-6.875895827E-4
9.620000000000001	-3.414918864E-4	-1.822138338E-4	-1.406732930E-3
9.63	4.835670584E-4	-1.836934507E-4	-5.558908559E-4
9.64	1.821692166E-4	-1.922138401E-4	-7.096969731E-4
9.65	-9.828078240E-4	-1.905862614E-4	-1.384760669E-3
9.66	1.286814329E-3	-1.839153936E-4	-8.910979598E-4
9.67	1.273369399E-4	-1.922138401E-4	-2.525891048E-3
9.68	-1.295179887E-3	-1.922138401E-4	-2.344638020E-3
9.69	-4.945091064E-4	-1.941376448E-4	-1.355434302E-3
9.700000000000001	-4.864329236E-4	-2.022138464E-4	-3.599833612E-4
9.71	-4.864329236E-4	-2.022138464E-4	2.209516985E-4
9.72	-6.946935945E-4	3.899810896E-6	-3.454831214E-4
9.73	-1.236554071E-3	5.401283174E-4	4.241093420E-4
9.74	-2.461149401E-4	-2.199188554E-4	6.490172307E-4
9.75	7.186182632E-4	-2.122138294E-4	9.397930153E-4
9.76	1.436237049E-3	-2.097705086E-4	4.018925308E-4
9.77	1.164236026E-3	-2.047323374E-4	2.374340567E-3
9.78	-7.937333902E-5	-2.122138294E-4	-3.092354935E-4
9.790000000000001	-1.252453663E-3	-2.122138294E-4	-1.011827239E-4
9.8	-5.264329022E-4	-2.149542691E-4	-1.274587495E-3
9.81	-5.264329022E-4	-2.250282560E-4	-4.264818118E-6
9.82	-5.206551898E-4	-2.322138420E-4	1.121001486E-3
9.83	-5.034689403E-4	-2.351777982E-4	4.241093420E-4
9.84	-2.017532184E-4	-2.422138483E-4	4.241093420E-4
9.85	4.735670754E-4	-2.422138483E-4	4.241093420E-4
9.86	7.794131326E-4	-2.422138483E-4	1.048545021E-3
9.870000000000001	1.427047284E-3	-2.454737203E-4	1.425705164E-3
9.88	1.403563899E-3	-2.555482163E-4	9.764819466E-5
9.89	1.046035146E-3	-2.588044224E-4	1.404109167E-3
9.9	3.900836835E-4	-2.522138313E-4	1.404109167E-3
9.91	3.800091436E-4	-2.522138313E-4	1.404109167E-3
9.92	3.735670590E-4	-2.449491200E-4	1.404109167E-3
9.93	1.785479678E-5	-2.285085034E-4	1.767232124E-3
9.94	-9.455245545E-4	-2.146540150E-4	2.384109179E-3
9.950000000000001	-7.847328387E-4	-2.022138464E-4	2.006331716E-3
9.96	4.096382199E-4	-1.982849912E-4	1.404109167E-3
9.97	7.798926819E-4	-1.882103736E-4	2.188788117E-3
9.98	9.398701466E-4	-1.822138338E-4	3.364109191E-3
9.99	3.494156279E-4	-1.780623920E-4	3.770951146E-3
10.0	3.435670867E-4	-1.722138508E-4	3.515874857E-3
10.01	3.478658362E-4	-1.722138508E-4	1.962831010E-3
10.02	3.491936514E-4	-1.678404223E-4	1.404109167E-3
10.03	-8.346897000E-5	-1.577655493E-4	1.840041825E-3
10.040000000000001	-1.777724056E-4	-1.476915621E-4	3.270474698E-3
10.05	-9.226954643E-5	-1.422138319E-4	3.893676257E-3
10.06	-1.060105203E-3	-1.375436050E-4	3.364109191E-3
10.07	-1.092011337E-3	-1.274696303E-4	3.364109191E-3
10.08	-5.664328809E-4	-5.800145908E-4	3.836366757E-3
10.09	-5.615391379E-4	-1.057532584E-3	3.864521527E-3
10.1	-7.953064654E-5	-5.603438184E-4	3.364109191E-3
10.11	3.985253504E-4	-6.717212425E-5	3.858197006E-3
10.120000000000001	-5.835303958E-4	-5.482047012E-4	4.344109109E-3
10.13	-9.973837397E-4	-1.001832809E-3	3.326772775E-3
10.14	-5.111685028E-4	-4.763025403E-4	3.926578602E-3
10.15	6.060836100E-6	-1.221384317E-5	4.796276882E-3
10.16	-5.803523724E-4	-1.221384317E-5	4.344109109E-3
10.17	1.238725143E-4	-6.726674412E-6	4.876364764E-3
10.18	3.447034924E-4	-5.360844882E-4	4.774677324E-3
10.19	-5.107977693E-4	-4.043356532E-4	4.344109109E-3
10.200000000000001	-1.037464083E-3	3.349616878E-5	4.897980381E-3
10.21	-3.143836936E-4	3.778615338E-5	4.753084510E-3
10.22	-5.294271967E-5	3.778615338E-5	4.344109109E-3
10.23	1.172557333E-4	4.371971840E-5	4.919664890E-3
10.24	5.035670710E-4	4.778615386E-5	4.142513023E-3
10.25	-6.640249675E-4	-5.360098831E-4	3.960067592E-3
10.26	-1.391810699E-3	-3.089707744E-4	4.941196642E-3
10.27	-1.351512386E-3	7.401628292E-5	5.314109111E-3
10.28	-7.186302847E-4	8.409026223E-5	3.467005369E-3
10.290000000000001	-3.500548182E-4	8.778615285E-5	3.634214659E-3
10.3	-3.464329053E-4	9.423923930E-5	3.711706719E-3
10.31	2.802190711E-4	9.778615332E-5	4.003816379E-3
10.32	6.069654757E-4	1.043877585E-4	3.050194404E-3
10.33	6.035670874E-4	1.011105665E-4	3.038316664E-3
10.34	5.900679439E-4	9.778615332E-5	4.025566748E-3
10.35	5.699199700E-4	9.778615332E-5	3.675401452E-3
10.36	5.566695449E-4	9.778615332E-5	3.364109191E-3
10.370000000000001	5.465944510E-4	1.047587602E-4	4.047424674E-3
10.38	-1.328446744E-4	1.077861523E-4	4.344109109E-3
10.39	-4.021939679E-4	1.149056234E-4	3.646400984E-3
10.4	2.869450473E-4	1.177861521E-4	3.364109191E-3
10.41	-8.419997329E-4	1.177861521E-4	3.364109191E-3
10.42	-6.394771112E-4	1.251291396E-4	2.644496388E-3
10.43	1.055041999E-3	1.277861518E-4	2.384109179E-3
10.44	1.000940524E-4	1.277861518E-4	4.579302916E-3
10.450000000000001	3.399514891E-4	1.202196479E-4	4.580158208E-3
10.46	5.659265840E-4	1.177861521E-4	3.595341622E-3
10.47	-1.693071578E-4	1.255006176E-4	4.120126768E-3
10.48	-3.786444555E-4	1.199977052E-4	3.580841387E-3
10.49	3.862225155E-4	8.647167354E-4	3.364109191E-3
10.5	5.856306629E-4	1.067786138E-3	2.586341159E-3
10.51	-1.855513420E-4	2.906560637E-4	1.598967433E-3
10.52	-3.764329009E-4	9.778615332E-5	1.404109167E-3
10.53	-3.682732605E-4	9.778615332E-5	1.404109167E-3
10.540000000000001	-3.664328946E-4	8.964749580E-4	1.404109167E-3
10.55	4.311241657E-4	2.702290501E-4	2.218282050E-3
10.56	-2.194739985E-4	9.040635118E-4	1.562686211E-3
10.57	4.354562473E-4	2.374398056E-4	1.404109167E-3
10.58	-2.354475845E-4	9.631755617E-5	2.240186663E-3
10.59	4.496838801E-4	1.063915358E-4	1.540781600E-3
10.6	1.408106677E-3	1.077861523E-4	2.254686900E-3
10.61	-1.013656245E-3	1.165394971E-4	2.384109179E-3
10.620000000000001	1.192318956E-3	1.177861521E-4	2.384109179E-3
10.63	6.521989261E-4	1.177861521E-4	3.256574604E-3
10.64	-1.197944025E-3	1.177861521E-4	1.604644340E-3
10.65	-5.094503313E-4	1.177861521E-4	1.404109167E-3
10.66	-4.073080741E-4	1.269109748E-4	1.404109167E-3
10.67	4.766522822E-4	1.277861518E-4	1.404109167E-3
10.68	5.442942672E-4	1.277861518E-4	4.953764436E-4
10.69	-3.630691706E-4	1.371329174E-4	4.241093420E-4
10.700000000000001	4.779586982E-4	1.472068975E-4	1.347342299E-3
10.71	1.454555561E-3	1.382914242E-4	4.736260500E-4
10.72	5.562649876E-4	1.377861516E-4	4.241093420E-4
10.73	-4.219209190E-4	-7.784134573E-4	4.241093420E-4
10.74	-4.467146541E-4	1.304558032E-4	1.376497068E-3
10.75	-4.366406909E-4	1.675783750E-4	1.404109167E-3
10.76	5.205889945E-4	1.677861508E-4	2.370997312E-3
10.77	5.236268978E-4	1.677861508E-4	-5.383054639E-4
10.78	-4.379597532E-4	1.777861484E-4	-5.558908559E-4
10.790000000000001	-1.380323828E-3	1.691728474E-4	-5.558908559E-4
10.8	1.471645075E-3	-7.661709782E-4	-5.719336683E-4
10.81	-4.003223060E-4	1.519132383E-4	-1.489304719E-3
10.82	1.432792582E-3	-1.701359139E-3	3.630232371E-4
10.83	-3.816177427E-4	-7.418282124E-4	-1.498097472E-3
10.84	1.438516660E-3	-7.763447644E-4	-5.108404690E-4
10.85	3.997421056E-4	-1.587853593E-3	3.716616662E-4
10.86	-1.435214526E-3	2.571769903E-4	-5.558908559E-4
10.870000000000001	-1.415066599E-3	1.815213894E-4	-5.558908559E-4
10.88	-1.248793913E-3	-7.206995576E-4	-4.816927786E-4
10.89	3.923076402E-4	-6.215841138E-4	2.611874257E-4
10.9	-1.209662309E-3	1.816671652E-4	-1.269375114E-3
10.91	5.625878447E-4	-5.872296106E-4	1.212182213E-3
10.92	4.512689491E-4	8.424450689E-5	-5.558908559E-4
10.93	-5.259072030E-4	-1.421008008E-3	-6.664937448E-4
10.94	-1.150726869E-3	3.177861434E-4	-1.535890681E-3
10.950000000000001	5.735670918E-4	3.177861434E-4	-1.535890681E-3
10.96	5.722163321E-4	3.177861434E-4	-1.535890681E-3
10.97	4.252355642E-4	3.177861434E-4	-1.535890681E-3
10.98	-2.609252270E-4	1.737785487E-4	-1.682898466E-3
10.99	4.108832896E-4	-4.911041264E-4	-2.207375198E-3
11.0	-5.646448013E-4	3.177861434E-4	-7.173988174E-4
11.01	-1.030638751E-3	1.524721124E-4	-1.704648791E-3
11.02	5.799750679E-4	-4.697976253E-4	-2.339882618E-3
11.03	5.616970826E-4	3.196561252E-4	-1.721019045E-3
11.040000000000001	5.535670792E-4	3.277861381E-4	-2.525891048E-3
11.05	5.555865945E-4	3.298056581E-4	-2.325958619E-3
11.06	5.614735665E-4	3.377861444E-4	-1.743147183E-3
11.07	7.659801435E-4	3.377861444E-4	-2.311310417E-3
11.08	1.094240735E-3	3.400276066E-4	-1.535890681E-3
11.09	-4.241174479E-4	3.477861506E-4	-1.765119515E-3
11.1	-6.482433408E-4	3.477861506E-4	-2.523501209E-3
11.11	-1.139935125E-3	3.477861506E-4	-2.515890879E-3
11.120000000000001	-3.864329072E-4	3.477861506E-4	-2.018255037E-3
11.13	-1.329778386E-4	3.477861506E-4	-1.068026887E-3
11.14	5.835670748E-4	3.477861506E-4	-2.252572672E-3
11.15	5.780452703E-4	3.477861506E-4	-1.535890681E-3
11.16	5.607321855E-4	3.477861506E-4	-1.816544056E-3
11.17	8.328617892E-4	3.506954724E-4	-2.811004239E-3
11.18	1.221094213E-3	3.548017381E-4	-2.917960414E-3
11.19	-5.976212608E-5	3.508445505E-4	-1.535890681E-3
11.200000000000001	-1.099459795E-3	3.546537764E-4	-1.228917637E-3
11.21	-1.122096619E-4	3.509925122E-4	-8.701140351E-4
11.22	5.502862131E-4	3.545052985E-4	-1.860695588E-3
11.23	5.469229546E-4	3.444302535E-4	-2.525891048E-3
11.24	2.208691153E-4	3.343562662E-4	-2.186333200E-3
11.25	-7.655881678E-5	3.277861381E-4	-2.226150373E-3
11.26	9.006173167E-4	3.277861381E-4	-2.801056565E-3
11.27	1.523567061E-3	3.277861381E-4	-1.897477717E-3
11.28	1.154615222E-3	3.240593538E-4	-2.525891048E-3
11.290000000000001	5.335670666E-4	3.177861434E-4	-2.525891048E-3
11.3	1.577531078E-4	3.216605121E-4	-2.525891048E-3
11.31	-5.334931041E-5	3.277861381E-4	-2.525891048E-3
11.32	-2.469523979E-4	3.237628439E-4	-2.525891048E-3
11.33	-6.074638701E-4	3.177861434E-4	-2.525891048E-3
11.34	-2.614856752E-4	3.219573991E-4	-2.521719720E-3
11.35	-5.627268562E-4	3.235402330E-4	-2.520136858E-3
11.36	5.535670792E-4	3.221069347E-4	-2.949328586E-3
11.370000000000001	5.491722919E-4	3.277861381E-4	-3.075202856E-3
11.38	1.144990124E-4	3.322555998E-4	-2.525891048E-3
11.39	1.975220417E-5	3.377861444E-4	-3.416435527E-3
11.4	9.960052997E-4	3.331694247E-4	-3.123959240E-3
11.41	1.059114923E-3	3.324775768E-4	-2.000342995E-3
11.42	7.124059194E-5	3.377861444E-4	-2.992983523E-3
11.43	-9.059355292E-4	3.426263806E-4	-3.031547910E-3
11.44	-9.199257136E-4	3.477861506E-4	-2.039383682E-3
11.450000000000001	-9.003639649E-4	3.477861506E-4	-1.535890681E-3
11.46	-1.386432838E-3	3.477861506E-4	-2.533292326E-3
11.47	-8.830102748E-4	-6.436480830E-4	-2.997331137E-3
11.48	-9.067571633E-4	-5.659301087E-4	-2.005143074E-3
11.49	-3.304372644E-4	3.730718353E-4	-2.577171923E-3
11.5	5.882073941E-4	-1.367424448E-4	-2.450035050E-3
11.51	1.105197801E-3	-5.514944431E-5	-1.003392717E-3
11.52	4.749177178E-4	3.932946450E-4	-1.635557214E-3
11.53	-9.380022494E-4	-1.382000205E-4	-1.968738221E-3
11.540000000000001	-2.632847277E-4	-5.565566533E-4	-1.535890681E-3
11.55	-5.282761700E-4	-1.108135460E-3	-2.097543578E-3
11.56	-7.875299869E-4	-9.475058014E-4	-3.090598701E-3
11.57	-9.467068106E-4	3.806005134E-5	-2.923858592E-3
11.58	-1.334526684E-3	-1.337107936E-4	-1.932487615E-3
11.59	-1.569964011E-4	-5.161858021E-4	-2.126637072E-3
11.6	6.135670704E-4	-5.061121736E-4	-2.515890879E-3
11.61	2.076366692E-5	-5.022138490E-4	-1.910737267E-3
11.620000000000001	2.534726662E-4	9.769173706E-5	-1.535890681E-3
11.63	6.559355070E-6	-1.492215800E-4	-2.781521015E-3
11.64	2.741716023E-4	1.119926995E-4	-2.872490239E-3
11.65	6.170945314E-4	-1.571044640E-4	-2.515890879E-3
11.66	6.135670704E-4	-4.856673169E-4	-2.515890879E-3
11.67	6.135670704E-4	1.666967352E-4	-3.820333455E-3
11.68	6.135670704E-4	4.910900983E-4	-2.510556100E-3
11.69	-4.302251618E-5	-1.468444707E-3	-1.535890681E-3
11.700000000000001	3.072834460E-4	-3.973798794E-4	-2.883850608E-3
11.71	-5.743102800E-5	-1.362944474E-4	-3.505890501E-3
11.72	-3.494398342E-4	2.391211512E-4	-3.505890501E-3
11.73	-3.464329053E-4	-1.436289674E-4	-3.505890501E-3
11.74	3.320103583E-4	-4.150723160E-4	-2.798881470E-3
11.75	6.035670874E-4	2.876885814E-4	-2.515890879E-3
11.76	5.962787430E-4	5.577861199E-4	-2.515890879E-3
11.77	-1.132843409E-4	5.504230966E-4	-3.244831142E-3
11.78	-3.664328946E-4	5.477861369E-4	-2.769585087E-3
11.790000000000001	-3.589203130E-4	5.477861369E-4	-1.779656474E-3
11.8	-1.843478494E-3	5.477861369E-4	-3.774046010E-3
11.81	-7.177525425E-5	5.477861369E-4	-3.735117673E-3
11.82	-1.367210064E-4	-1.947669883E-4	-3.505890501E-3
11.83	-3.564329116E-4	-4.122138156E-4	-3.505890501E-3
11.84	-3.564329116E-4	3.445436225E-4	-2.725484652E-3
11.85	-1.128249335E-3	5.477861369E-4	-3.295663789E-3
11.86	2.398296675E-4	5.397540346E-4	-2.708743416E-3
11.870000000000001	-1.707357196E-4	5.377861538E-4	-2.515890879E-3
11.88	-3.482528057E-4	5.296060289E-4	-2.515890879E-3
11.89	-1.138852255E-3	5.277861243E-4	-2.515890879E-3
11.9	1.117116642E-3	5.277861243E-4	-2.515890879E-3
11.91	-2.648492341E-5	5.277861243E-4	-3.339318762E-3
11.92	-1.150286851E-3	5.193084933E-4	-2.665081553E-3
11.93	1.200318881E-3	5.177861413E-4	-4.200343138E-3
11.94	7.696296898E-4	5.091605056E-4	-2.786641700E-3
11.950000000000001	6.335670830E-4	5.077861350E-4	-2.515890879E-3
11.96	-1.068551655E-3	4.990123418E-4	-2.515890879E-3
11.97	4.188858305E-4	4.977861519E-4	-3.382973668E-3
11.98	6.346453115E-4	4.977861519E-4	-3.495890332E-3
11.99	-1.111608402E-3	5.067818868E-4	-4.386469921E-3
12.0	4.533718722E-4	4.987149917E-4	-1.809898869E-3
12.01	-2.443803868E-4	4.886408600E-4	-3.328366448E-3
12.02	-3.172136437E-4	4.877861457E-4	-1.688914415E-3
12.030000000000001	5.757188520E-4	4.784928921E-4	-2.446629145E-3
12.040000000000001	-2.744212563E-4	4.871533734E-4	-2.515890879E-3
12.05	-3.364328990E-4	4.877861457E-4	-5.301047655E-3
12.06	-3.269177255E-4	4.973013413E-4	-2.658909919E-3
12.07	5.942723727E-4	4.977861519E-4	-3.455777004E-3
12.08	-3.039113035E-4	4.881214201E-4	-3.495890332E-3
12.09	-3.364328990E-4	4.780474334E-4	-2.541497664E-3
12.1	6.153977625E-4	4.679734458E-4	-2.515890879E-3
12.11	6.335670830E-4	4.776728070E-4	-3.484783775E-3
12.120000000000001	1.589939924E-3	4.777861394E-4	-3.505852717E-3
12.13	-1.319336889E-3	4.777861394E-4	-3.495890332E-3
12.14	6.334568985E-4	4.776759551E-4	-3.474294238E-3
12.15	5.878389565E-4	4.679702986E-4	-1.571987104E-3
12.16	-1.266094440E-3	4.527460006E-4	-3.470592061E-3
12.17	6.013507606E-4	-4.596653705E-4	-2.548439311E-3
12.18	-3.368390067E-4	4.873800380E-4	-3.496296446E-3
12.19	-2.532810428E-4	4.777861394E-4	-3.505890501E-3
12.200000000000001	1.538002777E-3	4.772304955E-4	-3.396428746E-3
12.21	5.324935488E-4	4.684157573E-4	-1.535890681E-3
12.22	-3.088868165E-4	4.777861394E-4	-1.674500866E-3
12.23	5.827894907E-4	4.031379398E-4	-3.428909573E-3
12.24	5.727155226E-4	-4.004634401E-4	-2.432437331E-3
12.25	4.747145494E-4	3.898591720E-4	-1.808927057E-3
12.26	-2.024939048E-4	-3.762440318E-4	-4.387921486E-3
12.27	1.332850750E-3	3.856532556E-4	-3.399457316E-3
12.280000000000001	-4.152838386E-4	-4.622138238E-4	-2.515890879E-3
12.290000000000001	-2.890206109E-4	-3.435784955E-4	-2.517113945E-3
12.3	4.264586246E-4	2.574602975E-4	-2.652999437E-3
12.31	-2.934452876E-4	-1.419471802E-3	-3.371531963E-3
12.32	4.048483339E-4	-1.259160089E-3	-2.809108390E-3
12.33	-2.690698214E-4	-4.106946111E-4	-4.337008378E-3
12.34	5.535670792E-4	-3.990247852E-4	-3.505890501E-3
12.35	2.315459815E-4	-5.440586307E-4	-3.669403843E-3
12.36	-1.036648430E-3	-1.179707906E-3	-4.485890699E-3
12.370000000000001	2.229893977E-4	-5.384109234E-4	-4.485890699E-3
12.38	-9.896863978E-4	-1.328432904E-3	-4.485890699E-3
12.39	3.929877332E-4	-1.310249091E-3	-4.098837838E-3
12.4	-3.823529422E-4	-9.044175050E-4	-2.515890879E-3
12.41	-3.664328946E-4	4.448457722E-4	-2.515890879E-3
12.42	-1.542024456E-4	-3.100258965E-4	-2.301472440E-3
12.43	3.841604741E-4	-3.022138162E-4	-2.203158233E-3
12.44	-1.421860819E-4	-7.563110303E-5	-4.256972020E-3
12.450000000000001	3.622180636E-4	4.340272437E-4	-3.505890501E-3
12.46	-1.254599772E-4	-2.997295635E-4	-3.505890501E-3
12.47	3.553032671E-4	-2.922138332E-4	-3.756713798E-3
12.48	-3.664328946E-4	-2.922138332E-4	-4.227817260E-3
12.49	-6.290490025E-4	-3.230512842E-5	-3.505890501E-3
12.5	-1.061077932E-3	4.007752366E-4	-3.230535620E-3
12.51	2.075910338E-4	-2.893580446E-4	-2.515890879E-3
12.52	1.306384235E-3	2.038583973E-6	-2.515890879E-3
12.530000000000001	3.222005771E-4	6.847823586E-4	-2.221520543E-3
12.540000000000001	-6.394117012E-5	6.777861489E-4	-1.535890681E-3
12.55	5.904142216E-4	6.777861489E-4	-2.157000404E-3
12.56	2.705653334E-4	6.777861489E-4	-3.505890501E-3
12.57	-6.955580921E-5	6.777861489E-4	-2.855632348E-3
12.58	2.461615484E-4	6.744108240E-4	-2.200827648E-3
12.59	-6.520041663E-5	6.643357865E-4	-2.826173860E-3
12.6	-1.201509005E-4	6.577861363E-4	-2.230181568E-3
12.61	-1.023799457E-3	6.577861363E-4	-3.505890501E-3
12.620000000000001	-4.016554533E-5	6.541132831E-4	-2.782337257E-3
12.63	5.735670918E-4	6.477861533E-4	-1.903178682E-3
12.64	1.311177699E-3	6.439643253E-4	-2.141352771E-3
12.65	1.736215696E-3	6.377861237E-4	-1.535890681E-3
12.66	9.145746528E-4	6.377861237E-4	-1.535890681E-3
12.67	1.489523267E-3	6.337423714E-4	-1.139602355E-3
12.68	-1.141159609E-4	6.236684078E-4	-9.594292901E-4
12.69	-1.168258679E-3	6.177861576E-4	-2.361659592E-3
12.700000000000001	5.293013724E-4	6.177861576E-4	-2.665547391E-3
12.71	1.068919727E-4	6.134457791E-4	-2.816298583E-3
12.72	-8.154917170E-6	6.033708984E-4	-4.053197368E-3
12.73	5.290778563E-4	5.977861451E-4	-2.621514652E-3
12.74	8.550000281E-5	5.977861451E-4	-2.434840755E-3
12.75	-4.317957222E-4	5.977861451E-4	-3.505890501E-3
12.76	2.590970938E-5	5.930742508E-4	-3.967657017E-3
12.77	9.978053597E-4	5.877861620E-4	-3.074031870E-3
12.780000000000001	5.558890555E-4	5.829262605E-4	-2.017019688E-3
12.790000000000001	-9.201618694E-4	5.728514641E-4	-2.037357865E-3
12.8	-4.297446960E-4	5.727947985E-4	-2.522596134E-3
12.81	5.384836195E-4	5.727027023E-4	-3.007713778E-3
12.82	-4.619642158E-4	5.729443339E-4	-2.015229730E-3
12.83	-1.385970183E-3	5.777861325E-4	-1.535890681E-3
12.84	-3.420396312E-4	5.777861325E-4	-1.535890681E-3
12.85	6.260374917E-5	5.777861325E-4	-2.062989819E-3
12.86	1.470935342E-4	5.723327412E-4	-1.981457522E-3
12.870000000000001	5.286975312E-5	5.622580359E-4	-1.535890681E-3
12.88	-3.764329009E-4	5.577861199E-4	-2.084980892E-3
12.89	-9.214856655E-4	5.577861199E-4	-2.515890879E-3
12.9	-2.150448249E-4	5.520354214E-4	-1.952321360E-3
12.91	6.077421433E-4	5.477861369E-4	-2.106734625E-3
12.92	3.720785906E-5	5.477861369E-4	-1.937732383E-3
12.93	2.170284641E-4	5.477861369E-4	-1.535890681E-3
12.94	2.300354544E-5	5.477861369E-4	-2.128549417E-3
12.950000000000001	2.373542835E-4	5.477861369E-4	-1.915982034E-3
12.96	6.073715824E-4	5.477861369E-4	-1.535890681E-3
12.97	6.035670874E-4	5.540565927E-4	-2.150396522E-3
12.98	6.035670874E-4	5.514420949E-4	-2.515890879E-3
12.99	1.226156800E-3	5.477861369E-4	-3.151317324E-3
13.0	9.437464741E-4	-7.554141101E-5	-3.505890501E-3
13.01	-3.352987814E-5	2.183151204E-4	-3.505890501E-3
13.02	1.559901162E-3	5.477861369E-4	-2.848280141E-3
13.030000000000001	1.217130707E-3	-1.037155199E-4	-2.515890879E-3
13.040000000000001	-7.435811369E-4	2.363602692E-4	-3.188043597E-3
13.05	-6.937628711E-4	-1.111558960E-4	-3.505890501E-3
13.06	9.526887896E-4	-1.078305459E-3	-2.818983756E-3
13.07	8.493359769E-4	-4.788983726E-6	-3.897340491E-3
13.08	5.535670792E-4	-1.026168565E-4	-4.485890699E-3
13.09	5.535670792E-4	-3.750518611E-4	-3.784017391E-3
13.1	5.535670792E-4	-3.649778976E-4	-2.789531561E-3
13.11	-8.645598011E-4	-3.549038997E-4	-3.955947486E-3
13.120000000000001	-6.628093834E-4	-3.522138244E-4	-3.762267055E-3
13.13	1.040398550E-3	-3.447559428E-4	-3.505890501E-3
13.14	7.953270968E-4	-3.346807932E-4	-4.244130624E-3
13.15	5.535670792E-4	-1.807823029E-3	-3.740479734E-3
13.16	-1.689298253E-3	-7.590477972E-4	-4.258633146E-3
13.17	-9.410327689E-5	4.423037086E-4	-2.958078759E-3
13.18	5.635670622E-4	6.577861363E-4	-2.515890879E-3
13.19	5.635670622E-4	-8.754642519E-4	-3.298322513E-3
13.200000000000001	5.555897418E-4	2.733662587E-4	-2.716134742E-3
13.21	1.342720123E-3	6.677861193E-4	-3.313096229E-3
13.22	7.371338822E-4	-1.205201494E-4	-3.505890501E-3
13.23	1.332647804E-3	-2.940129797E-4	-1.890323119E-3
13.24	-1.017501195E-4	-2.756641610E-4	-3.166032215E-3
13.25	-4.280840787E-4	-2.805626573E-4	-3.505890501E-3
13.26	-4.180101077E-4	-2.653682546E-4	-3.505890501E-3
13.27	-4.164329028E-4	-2.537170586E-4	-1.832026254E-3
13.280000000000001	-4.078607937E-4	-1.075135773E-3	-1.535890681E-3
13.290000000000001	-3.977866023E-4	-3.648755652E-4	-1.535890681E-3
13.3	1.286583032E-3	6.136542788E-4	-1.535890681E-3
13.31	6.717285675E-4	7.289918845E-4	-6.740523274E-4
13.32	5.446988013E-4	7.277861571E-4	-2.294068203E-3
13.33	5.435670496E-4	7.188438985E-4	-7.632133727E-4
13.34	5.345508517E-4	7.087699295E-4	-5.558908559E-4
13.35	-1.221116578E-3	-1.650098516E-4	-5.558908559E-4
13.36	3.817222630E-4	6.368637361E-4	-5.558908559E-4
13.370000000000001	1.439820860E-3	7.085464134E-4	-1.461384208E-3
13.38	-2.839789521E-4	7.077861445E-4	-6.231472548E-4
13.39	-4.070452056E-4	7.077861445E-4	3.641030800E-4
13.4	-3.875095633E-4	7.077861445E-4	-5.031346697E-4
13.41	5.289897729E-4	6.982504633E-4	3.786033197E-4
13.42	-3.491029808E-4	6.881749846E-4	-1.459675414E-3
13.43	-3.767477130E-4	6.877861319E-4	-5.867424150E-4
13.44	5.604473366E-4	6.780269791E-4	1.356906367E-3
13.450000000000001	5.835670748E-4	2.585417064E-3	-2.450485561E-3
13.46	5.736599606E-4	6.660813473E-4	-1.544991846E-3
13.47	5.735670918E-4	6.477861533E-4	-5.577419495E-4
13.48	-3.909929638E-4	6.377861237E-4	1.404109167E-3
13.49	5.511555562E-4	6.377861237E-4	1.365698823E-3
13.5	-3.864329072E-4	6.375814963E-4	-1.475730127E-3
13.51	-4.131793732E-4	6.277861407E-4	1.404109167E-3
13.52	-1.311526561E-3	6.274335519E-4	1.404109167E-3
13.530000000000001	-3.159023235E-4	6.177861576E-4	1.362298672E-3
13.540000000000001	5.453630162E-4	6.172840307E-4	4.733176282E-4
13.55	-3.658567898E-4	6.077861281E-4	1.347650808E-3
13.56	-1.685577602E-4	6.077861281E-4	4.241093420E-4
13.57	2.322139344E-3	6.063379957E-4	5.660265418E-4
13.58	-3.864329072E-4	5.869881111E-4	2.384109179E-3
13.59	-2.181313147E-4	5.769141049E-4	2.384109179E-3
13.6	1.267332056E-3	5.668401364E-4	2.198691192E-3
13.61	-1.274417747E-3	5.577861199E-4	5.240841352E-4
13.620000000000001	-3.764329009E-4	5.555950327E-4	1.511472624E-3
13.63	-2.629888204E-4	5.366166237E-4	2.269495566E-3
13.64	5.910800479E-4	5.277861243E-4	1.647836555E-3
13.65	5.735670918E-4	5.264686383E-4	3.105881493E-3
13.66	1.699776698E-4	5.163944527E-4	1.540494559E-3
13.67	-1.899529072E-3	5.077861350E-4	2.527877486E-3
13.68	4.340896240E-4	5.062451329E-4	3.364109191E-3
13.69	-5.414714794E-4	4.977861519E-4	3.047572102E-3
13.700000000000001	-1.020462421E-3	4.960971846E-4	2.064494966E-3
13.71	7.528099523E-4	4.860231978E-4	4.797565732E-3
13.72	1.361682541E-3	4.759489211E-4	2.384109179E-3
13.73	3.719098089E-4	4.677861331E-4	2.571502998E-3
13.74	-2.058535249E-4	4.677861331E-4	3.364109191E-3
13.75	5.635670622E-4	2.679230411E-4	3.364109191E-3
13.76	3.586300397E-4	-4.958095678E-4	3.573315722E-3
13.77	-3.942232804E-4	-2.600892077E-4	3.911021306E-3
13.780000000000001	-1.650065889E-4	2.663598273E-4	2.384109179E-3
13.790000000000001	3.572403572E-4	-2.535295473E-4	2.615151045E-3
13.8	9.269805984E-5	2.544360199E-4	3.364109191E-3
13.81	1.064915974E-3	-2.291412757E-4	2.627373791E-3
13.82	-3.912723299E-4	4.950730396E-6	1.435583031E-3
13.83	-6.260048617E-4	-1.146711737E-3	4.344109109E-3
13.84	-7.845030102E-4	-1.448849682E-4	3.809451414E-3
13.85	9.001283933E-5	2.960090276E-4	2.109530223E-3
13.86	-1.024559416E-3	-3.993375775E-4	1.685982646E-3
13.870000000000001	-3.264329160E-4	-3.892624789E-4	2.384109179E-3
13.88	-3.234075716E-4	-8.875560193E-5	2.087625609E-3
13.89	-9.177963392E-4	5.815865350E-4	1.404109167E-3
13.9	-7.134419895E-4	5.646112617E-4	1.715247250E-3
13.91	2.278681199E-3	2.458956741E-4	2.065720996E-3
13.92	1.274605944E-3	-7.989836441E-5	1.404109167E-3
13.93	6.135670704E-4	-8.430072430E-5	1.404109167E-3
13.94	2.839904864E-4	-6.757145251E-4	1.404109167E-3
13.950000000000001	-3.399766675E-4	5.977861451E-4	1.751398264E-3
13.96	9.683445059E-7	5.941673881E-4	2.384109179E-3
13.97	2.590078854E-4	5.840928262E-4	2.022163331E-3
13.98	-1.073600011E-3	-1.493809992E-4	1.034874106E-3
13.99	-1.519694815E-3	-6.108410599E-4	8.005576376E-4
14.0	4.492863211E-4	5.738704954E-4	1.404109167E-3
14.01	8.496439089E-4	5.677861495E-4	1.404109167E-3
14.02	-3.123686853E-4	5.677861495E-4	6.075216788E-4
14.030000000000001	4.922402136E-4	1.705186888E-4	-1.503469075E-4
14.040000000000001	3.976287936E-4	1.643223858E-5	8.369682105E-4
14.05	-8.577265879E-4	5.777861325E-4	9.839770420E-4
14.06	1.365677179E-4	5.690644645E-4	8.514707268E-4
14.07	2.577399019E-4	5.577861199E-4	9.694106553E-4
14.08	-2.764329078E-4	5.577861199E-4	8.660579760E-4
14.09	-2.718492435E-4	5.577861199E-4	1.404109167E-3
14.1	-2.617745336E-4	5.577861199E-4	1.404109167E-3
14.11	-2.564329185E-4	5.577861199E-4	1.867962496E-3
14.120000000000001	-2.516257375E-4	5.529789501E-4	1.441902378E-3
14.13	7.003628417E-4	5.429057543E-4	4.241093420E-4
14.14	1.203086794E-3	5.328317936E-4	4.241093420E-4
14.15	2.107132804E-4	5.277861243E-4	1.409816849E-3
14.16	7.137244808E-4	5.277861243E-4	3.833787717E-4
14.17	1.150960804E-3	5.277861243E-4	-1.028462380E-3
14.18	6.683151814E-4	5.225342440E-4	-4.120561344E-5
14.19	6.635670786E-4	5.177861413E-4	4.241093420E-4
14.200000000000001	6.635670786E-4	5.123855395E-4	-1.051494056E-4
14.21	1.325329046E-4	5.077861350E-4	-5.558908559E-4
14.22	-8.447279417E-4	5.077861350E-4	-1.099735267E-3
14.23	-1.797305065E-4	5.077861350E-4	-9.847275279E-4
14.24	1.265498906E-4	5.077861350E-4	-5.558908559E-4
14.25	-8.463243009E-4	5.020140684E-4	9.772745263E-6
14.26	-6.835192803E-4	4.977861519E-4	-1.488043867E-4
14.27	2.978107659E-4	4.918661102E-4	-1.136054475E-3
14.280000000000001	-4.632785575E-4	4.877861457E-4	-9.484769361E-4
14.290000000000001	-5.924101238E-5	4.877861457E-4	-5.558908559E-4
14.3	6.912811839E-4	4.877861457E-4	-5.558908559E-4
14.31	8.046616029E-5	4.877861457E-4	-1.774527796E-3
14.32	-2.801423840E-4	4.814956155E-4	-1.899419191E-3
14.33	-8.874657012E-4	4.777861394E-4	-2.883653788E-4
14.34	-1.229994453E-3	4.713476708E-4	-8.378297078E-4
14.35	-1.219919964E-3	4.677861331E-4	-8.976256323E-4
14.36	-5.707621818E-4	4.611976677E-4	-1.201561445E-3
14.370000000000001	4.032145047E-4	4.577861500E-4	-2.188864228E-3
14.38	7.008050720E-5	4.577861500E-4	-1.195443764E-3
14.39	4.074188261E-4	4.577861500E-4	-1.890838172E-3
14.4	5.261317412E-5	4.509012091E-4	-1.166443290E-3
14.41	4.216231383E-4	4.477861438E-4	-5.558908559E-4
14.42	7.135670868E-4	4.477861438E-4	1.333333066E-4
14.43	2.409127848E-5	4.477861438E-4	-9.690582796E-4
14.44	4.402631482E-4	4.477861438E-4	-2.239769320E-3
14.450000000000001	1.706094964E-5	4.477861438E-4	-2.515890879E-3
14.46	1.175582107E-3	4.477861438E-4	-1.797553203E-3
14.47	-4.685108218E-4	4.403817628E-4	-8.102619373E-4
14.48	2.318466491E-4	-2.801360806E-4	-5.558908559E-4
14.49	1.456143758E-3	-5.071091649E-4	-5.558908559E-4
14.5	9.384426137E-4	-4.945863070E-4	-1.303387623E-3
14.51	1.450648712E-3	-4.845119592E-4	-7.811072376E-4
14.52	9.037574917E-4	-4.822138364E-4	-2.079958320E-3
14.530000000000001	-7.001705192E-5	-4.743640149E-4	-1.746606910E-3
14.540000000000001	-2.685090869E-4	-4.642900140E-4	-3.088958325E-3
14.55	-1.050340372E-3	-4.622138238E-4	-1.928075651E-3
14.56	1.110985586E-3	-4.622138238E-4	-7.447023978E-4
14.57	9.298459724E-5	-4.459191488E-4	-1.354329287E-3
14.58	-2.664329015E-4	-4.422138112E-4	-2.341579504E-3
14.59	-1.071076422E-3	3.707249698E-4	-2.515890879E-3
14.6	-1.228063647E-3	-2.656641916E-4	-1.695701818E-3
14.61	4.200019090E-4	-4.222138452E-4	-2.363329895E-3
14.620000000000001	-1.755338808E-3	-1.248515791E-3	-2.515890879E-3
14.63	3.226620124E-4	2.833803552E-4	-1.673797203E-3
14.64	-1.071097994E-4	5.577861199E-4	-3.234577698E-3
14.65	-2.276921480E-4	-2.813260751E-4	-2.639297069E-3
14.66	6.285962477E-4	4.528153148E-4	-2.515890879E-3
14.67	-1.275268841E-4	5.677861495E-4	-2.515890879E-3
14.68	-2.274702051E-4	-2.926325928E-4	-3.394234522E-3
14.69	-1.103128461E-3	-3.922138496E-4	-2.610157150E-3
14.700000000000001	-2.943220896E-4	4.916724913E-4	-2.515890879E-3
14.71	-1.088309169E-3	5.777861325E-4	-1.615641951E-3
14.72	6.300443031E-4	5.685259561E-4	-2.443389688E-3
14.73	-1.318477186E-4	5.677861495E-4	-2.515890879E-3
14.74	7.161579401E-4	5.583779680E-4	-3.437889423E-3
14.75	7.640849126E-4	5.577861199E-4	-1.637392222E-3
14.76	7.540109494E-4	-3.596008981E-4	-3.408888935E-3
14.77	7.535670654E-4	5.416841186E-4	-2.551992874E-3
14.780000000000001	-1.781754418E-4	5.680804976E-4	-3.467044182E-3
14.790000000000001	-1.966532725E-4	5.677861495E-4	-3.495890332E-3
14.8	-1.964329040E-4	5.579325073E-4	-2.530236801E-3
14.81	7.566160024E-4	5.577861199E-4	-2.515890879E-3
14.82	1.743107288E-3	5.577861199E-4	-3.495890332E-3
14.83	-1.154367425E-3	5.577861199E-4	-3.481079251E-3
14.84	1.743264841E-3	5.576350104E-4	-1.580316937E-3
14.85	1.701508176E-3	5.477861369E-4	-4.475890530E-3
14.86	6.852481766E-4	5.474870661E-4	-4.417272562E-3
14.870000000000001	-1.169500660E-3	5.377861538E-4	-2.515890879E-3
14.88	-1.735177452E-4	5.377861538E-4	-2.515890879E-3
14.89	6.935497226E-4	5.377861538E-4	-2.566950239E-3
14.9	-1.593044423E-4	5.371910639E-4	-3.379253073E-3
14.91	6.785237937E-4	5.277861243E-4	-1.601604534E-3
14.92	-2.256883694E-4	5.277861243E-4	-2.588854838E-3
14.93	-1.370248470E-4	5.277861243E-4	-3.415663677E-3
14.94	7.535670654E-4	5.277861243E-4	-2.691127753E-3
14.950000000000001	6.596812782E-4	5.277861243E-4	-4.191329490E-3
14.96	-2.164329050E-4	5.277861243E-4	-1.944853433E-3
14.97	-2.153168970E-4	5.266701175E-4	-5.136668348E-3
14.98	-2.052429205E-4	5.177861413E-4	-2.632509740E-3
14.99	-3.190573150E-4	5.190503084E-4	-3.495890332E-3
15.0	-1.035180045E-3	5.264468122E-4	-3.364637602E-3
15.01	-1.864329094E-4	5.177861413E-4	-2.654281909E-3
15.02	-1.864329094E-4	5.192733914E-4	-3.641641119E-3
15.030000000000001	-1.848727712E-4	5.262259879E-4	-4.170103332E-3
15.040000000000001	-1.747974655E-4	5.161506920E-4	-2.515890879E-3
15.05	-2.327753158E-6	5.077861350E-4	-2.515890879E-3
15.06	9.665578323E-4	5.042193172E-4	-2.515890879E-3
15.07	1.581542792E-3	4.877861457E-4	-2.697915027E-3
15.08	7.816354173E-4	4.897178224E-4	-3.685194576E-3
15.09	5.809021219E-4	4.957792244E-4	-4.082533052E-3
15.1	-3.882808544E-4	4.877861457E-4	-2.719819628E-3
15.11	-7.362297372E-4	4.877861457E-4	-3.284711441E-3
15.120000000000001	5.773328325E-4	4.855569251E-4	-2.297427359E-3
15.13	4.475689211E-5	4.777861394E-4	-1.535890681E-3
15.14	5.553555154E-4	4.777861394E-4	-2.001822588E-3
15.15	5.899603382E-5	4.753337530E-4	-3.736224093E-3
15.16	5.385096136E-4	4.677861331E-4	-3.733139001E-3
15.17	-4.386664988E-4	4.651857911E-4	-2.045558490E-3
15.18	-8.943487811E-4	4.604604730E-4	-3.495890332E-3
15.19	-4.430607371E-4	4.677861331E-4	-3.226513908E-3
15.200000000000001	-8.696943207E-4	4.649622750E-4	-3.069367906E-3
15.21	-7.285261789E-4	4.577861500E-4	-4.191946451E-3
15.22	-9.478527792E-4	4.548154298E-4	-3.495890332E-3
15.23	9.041918102E-4	1.584346252E-4	-3.197401561E-3
15.24	-1.123313127E-3	-5.022138490E-4	-2.515890879E-3
15.25	-1.113239133E-3	-1.924184492E-4	-2.828879877E-3
15.26	-1.416868868E-3	4.677861331E-4	-3.495890332E-3
15.27	-1.725549614E-3	1.469296774E-4	-3.168349534E-3
15.280000000000001	-7.315918199E-4	-4.887970793E-4	-2.181049717E-3
15.290000000000001	5.871833661E-4	-4.787236025E-4	-2.219977560E-3
15.3	1.151909533E-3	-8.144773651E-4	-3.146496508E-3
15.31	2.529327519E-4	-7.225648046E-4	-2.872534803E-3
15.32	8.598532797E-4	1.612621811E-4	-3.495890332E-3
15.33	1.217230981E-3	-4.422138112E-4	-3.867130620E-3
15.34	6.822448068E-4	-4.344914878E-4	-3.340707119E-3
15.35	-1.108561365E-3	-4.182780653E-4	-1.921596049E-3
15.36	-3.103349472E-4	-4.082031186E-4	-3.301988685E-3
15.370000000000001	7.113824788E-5	-4.022138326E-4	-4.475890530E-3
15.38	-2.654931669E-4	5.335362766E-6	-4.068341238E-3
15.39	8.735670478E-4	-2.433472315E-4	-3.081091228E-3
15.4	8.735670478E-4	-1.349291899E-3	-2.515890879E-3
15.41	4.484954248E-4	-8.983778074E-4	-2.086436969E-3
15.42	-1.008883728E-4	-3.377583873E-4	-3.282431661E-3
15.43	-5.457733200E-4	-7.670249894E-4	-4.568151155E-3
15.44	-1.071828058E-3	-3.988730747E-4	-3.495890332E-3
15.450000000000001	-6.032175660E-4	6.477861533E-4	-2.120281364E-3
15.46	-7.643290998E-5	6.477861533E-4	-1.953223878E-3
15.47	-7.160602995E-5	6.429592578E-4	-3.022856238E-3
15.48	-6.643291241E-5	1.624066755E-4	-3.956731633E-3
15.49	-5.490663194E-4	1.454439649E-4	-3.993063718E-3
15.5	-5.176419072E-5	6.277861407E-4	-3.505608996E-3
15.51	4.165813808E-4	6.277861407E-4	-3.973781165E-3
15.52	9.468510606E-4	6.277861407E-4	-2.986451070E-3
15.530000000000001	1.351530169E-3	6.225130500E-4	-2.515890879E-3
15.540000000000001	8.835670308E-4	6.177861576E-4	-3.563918442E-3
15.55	8.727249269E-4	6.177861576E-4	-2.350834720E-3
15.56	3.305480098E-4	6.122910995E-4	-2.171432898E-3
15.57	-1.064329114E-4	6.022171147E-4	-3.495890332E-3
15.58	4.409384171E-4	5.977861451E-4	-2.942876295E-3
15.59	8.578500901E-4	5.977861451E-4	-1.395361925E-3
15.6	2.975468862E-4	5.919942778E-4	-2.258702413E-3
15.610000000000001	-1.122994316E-4	5.877861620E-4	-3.495890332E-3
15.620000000000001	-6.926614768E-4	5.818456436E-4	-3.495890332E-3
15.63	-4.849847444E-4	5.777861325E-4	-2.906471469E-3
15.64	1.088640335E-3	5.716976804E-4	-2.515890879E-3
15.65	1.233389133E-3	5.677861495E-4	-3.119905075E-3
15.66	2.485764798E-4	5.677861495E-4	-3.495890332E-3
15.67	-1.101215131E-4	5.614747323E-4	-3.495890332E-3
15.68	5.130051518E-4	5.577861199E-4	-4.747538661E-3
15.69	8.635670648E-4	5.577861199E-4	-4.189742132E-3
15.700000000000001	-4.040136161E-4	5.512522098E-4	-4.136214735E-3
15.71	2.121079775E-4	5.411782460E-4	-3.828315992E-3
15.72	2.253223792E-4	5.377861538E-4	-2.840963066E-3
15.73	-9.643291093E-5	5.377861538E-4	-2.515890879E-3
15.74	1.222030876E-3	5.377861538E-4	-2.515890879E-3
15.75	4.870142497E-4	5.377861538E-4	-3.192619621E-3
15.76	-1.094535314E-4	5.377861538E-4	-3.495890332E-3
15.77	5.706897173E-4	5.377861538E-4	-2.113431868E-3
15.780000000000001	1.622149344E-4	5.377861538E-4	-2.932849420E-3
15.790000000000001	1.288046094E-3	5.377861538E-4	-4.201731204E-3
15.8	4.145760350E-4	5.305092551E-4	-3.049622852E-3
15.81	-8.293538848E-4	5.204364358E-4	-3.236161173E-3
15.82	-3.514140119E-4	5.177861413E-4	-3.495890332E-3
15.83	6.234537749E-4	5.177861413E-4	-3.495890332E-3
15.84	1.290054465E-4	5.177861413E-4	-2.753756310E-3
15.85	-1.064329114E-4	5.101393550E-4	-1.766506147E-3
15.860000000000001	6.348769554E-4	5.077861350E-4	-2.292644662E-3
15.870000000000001	8.535670818E-4	4.999898314E-4	-2.515890879E-3
15.88	8.378264395E-4	4.977861519E-4	-9.733124737E-4
15.89	1.604161976E-3	4.977861519E-4	-2.891508288E-3
15.9	1.009759347E-3	4.897678874E-4	-3.527328717E-4
15.91	2.861980225E-5	4.877861457E-4	-1.955009392E-3
15.92	6.358151729E-4	4.877861457E-4	-1.715475100E-3
15.93	8.053252947E-4	4.877861457E-4	-1.535890681E-3
15.94	-1.137704589E-5	4.794703840E-4	-1.535890681E-3
15.950000000000001	-1.680431719E-4	4.777861394E-4	-1.535890681E-3
15.96	-1.664329084E-4	4.693224160E-4	-7.064464645E-4
15.97	6.533152016E-4	4.592471047E-4	-5.558908559E-4
15.98	-8.771410938E-4	4.663980334E-4	-1.399856711E-3
15.99	1.372805089E-3	4.504120869E-4	1.018095333E-3
16.0	3.444481559E-3	4.565473649E-4	-3.130891136E-4
16.01	2.378406246E-4	-1.256241766E-3	-3.153438026E-3
16.02	6.299388929E-4	2.461665440E-4	-8.765926974E-4
16.03	7.245839105E-4	-3.956137959E-4	-5.558908559E-4
16.04	1.593189151E-3	-4.922138194E-4	3.318486181E-4
16.05	7.794303918E-4	-4.830811412E-4	-4.708948190E-4
16.06	-1.967161580E-3	4.016268503E-4	2.150871348E-3
16.07	-3.681438006E-4	-1.313380247E-3	-3.444035046E-4
16.080000000000002	-2.170782690E-4	-2.322194977E-3	2.194372054E-3
16.09	6.887143033E-4	-5.153476931E-4	5.361004248E-4
16.1	7.435670824E-4	-3.927112515E-4	4.241093420E-4
16.11	1.663063348E-3	-1.311710070E-3	-5.145432405E-4
16.12	1.684262714E-3	5.203000290E-4	3.900184021E-4
16.13	7.206818191E-4	5.780600196E-4	2.330427461E-3
16.14	6.837669959E-4	-3.630229349E-4	4.632907310E-4
16.15	6.736929867E-4	5.755714612E-4	1.391768544E-3
16.16	-2.913943815E-4	5.877861620E-4	1.404109167E-3
16.17	-1.258548742E-3	5.777640922E-4	2.384109179E-3
16.18	-2.197207355E-3	5.676885575E-4	2.403237150E-3
16.19	-2.464329122E-4	5.576145472E-4	4.327294958E-3
16.2	-2.461873588E-4	5.477861369E-4	3.340044967E-3
16.21	-2.364329059E-4	5.477861369E-4	2.352794791E-3
16.22	-2.368264830E-4	5.477861369E-4	1.442679697E-3
16.23	-1.554333859E-4	5.473170679E-4	2.292171515E-3
16.240000000000002	1.588215071E-3	5.377861538E-4	5.305473298E-4
16.25	-2.458158805E-4	5.371691207E-4	2.444578252E-3
16.26	-2.357418929E-4	5.277861243E-4	3.364109191E-3
16.27	-1.537585712E-4	5.270211326E-4	3.364109191E-3
16.28	6.438645258E-4	5.177861413E-4	3.446328653E-3
16.29	-2.264328996E-4	5.177861413E-4	4.165170023E-3
16.3	-1.326592402E-4	5.177861413E-4	2.480844116E-3
16.31	6.215840212E-4	5.177861413E-4	3.468216880E-3
16.32	-1.286006801E-4	5.166510645E-4	4.344109109E-3
16.330000000000002	8.285600363E-4	5.065756848E-4	4.344109109E-3
16.34	1.414347877E-3	4.965015164E-4	4.344109109E-3
16.35	-1.943574036E-5	4.864263714E-4	4.476007126E-3
16.36	1.743935475E-3	4.777861394E-4	5.314109111E-3
16.37	2.224993123E-3	4.762781893E-4	5.167838051E-3
16.38	3.916778400E-4	4.662039564E-4	4.497580506E-3
16.39	-2.589965994E-4	4.544716994E-4	5.314109111E-3
16.4	3.674974614E-4	4.360562486E-4	5.314109111E-3
16.41	-4.246290166E-4	5.991540069E-4	5.314109111E-3
16.42	-2.361589861E-4	1.191878606E-3	5.314109111E-3
16.43	1.103831491E-3	3.877861525E-4	5.124751428E-3
16.44	2.622885273E-3	3.877861525E-4	4.540765817E-3
16.45	1.145588542E-4	3.877861525E-4	5.314109111E-3
16.46	2.151681365E-3	3.877861525E-4	5.314109111E-3
16.47	9.194461118E-4	3.855368197E-4	5.095923964E-3
16.48	-5.717862836E-4	3.777861463E-4	4.344109109E-3
16.490000000000002	-9.608016792E-5	3.777861463E-4	4.344109109E-3
16.5	1.121266100E-3	3.753136859E-4	4.344109109E-3
16.51	3.810214256E-4	3.652404889E-4	4.591037685E-3
16.52	1.245901704E-4	6.041422345E-4	5.314109111E-3
16.53	-8.297431667E-4	1.289701739E-3	5.314109111E-3
16.54	-9.765225490E-4	1.256711013E-3	5.314109111E-3
16.55	1.606629435E-4	9.463537391E-4	5.314109111E-3
16.56	-2.464265720E-4	2.377861512E-4	5.314109111E-3
16.57	4.305759041E-4	2.377861512E-4	5.023964274E-3
16.580000000000002	4.205008044E-4	2.377861512E-4	4.641537112E-3
16.59	4.104268259E-4	2.377861512E-4	5.314109111E-3
16.6	7.057046532E-4	2.410003792E-4	5.002328834E-3
16.61	1.014746024E-3	2.477861459E-4	4.663065541E-3
16.62	2.415891941E-5	2.444239564E-4	5.314109111E-3
16.63	-5.995605573E-4	2.377861512E-4	5.314109111E-3
16.64	-5.794125833E-4	2.377861512E-4	5.314109111E-3
16.65	-5.592634966E-4	2.377861512E-4	5.314109111E-3
16.66	-5.391135329E-4	2.414458379E-4	4.959119311E-3
16.67	-5.152318959E-4	2.440524786E-4	4.706275034E-3
16.68	-4.926252629E-4	2.339784986E-4	5.314109111E-3
16.69	-1.137963556E-4	2.316677783E-4	5.314109111E-3
16.7	9.382834043E-5	2.338305369E-4	4.930414763E-3
16.71	-4.824026850E-4	2.237559204E-4	3.949146925E-3
16.72	2.994399429E-4	2.177861503E-4	4.164612897E-3
16.73	6.069953148E-4	2.136070218E-4	4.908733669E-3
16.740000000000002	-8.992127111E-4	2.077861498E-4	4.756660681E-3
16.75	-1.386143263E-3	-1.946331850E-4	5.314109111E-3
16.76	-9.063258476E-4	-7.090106119E-4	4.887205264E-3
16.77	-3.419578511E-4	-6.877388084E-4	3.905554105E-3
16.78	5.325689334E-4	-2.454380404E-4	3.809984468E-3
16.79	1.120357484E-3	2.777861531E-4	3.890899617E-3
16.8	5.888684979E-4	2.777861531E-4	3.364109191E-3
16.81	1.027414100E-3	2.777861531E-4	3.831818919E-3
16.82	1.024067599E-3	2.729396206E-4	4.814222468E-3
16.830000000000002	-4.413195550E-4	-2.095784539E-4	4.354458647E-3
16.84	-9.218224380E-4	-2.175955292E-4	3.364109191E-3
16.85	5.522145878E-5	2.677861468E-4	3.364109191E-3
16.86	3.488456249E-5	-2.260404162E-4	2.859994568E-3
16.87	7.971380618E-5	-1.860671237E-4	1.872744440E-3
16.88	5.435670496E-4	-2.302447358E-4	1.922724027E-3
16.89	2.835292098E-5	-1.616328918E-4	2.910056968E-3
16.9	-4.164329028E-4	-2.346001162E-4	3.364109191E-3
16.91	-4.109173946E-4	-1.372098665E-4	2.283070244E-3
16.92	1.357471744E-4	-2.443939154E-4	1.951878753E-3
16.93	5.579027142E-4	-1.227711344E-4	2.939216238E-3
16.94	5.535670792E-4	2.977861425E-4	2.801685104E-3
16.95	-1.138016455E-3	2.977861425E-4	1.814434982E-3
16.96	-1.773621570E-3	2.977861425E-4	1.404109167E-3
16.97	-1.360471919E-3	2.977861425E-4	8.199348457E-4
16.98	-1.350397955E-3	-2.815684937E-4	4.241093420E-4
16.990000000000002	-7.416493233E-4	-6.353917736E-5	2.220133233E-3
17.0	-3.564329116E-4	3.177861434E-4	1.546048831E-3
17.01	2.506377830E-4	3.177861434E-4	4.241093420E-4
17.02	1.227813831E-3	3.114537052E-4	1.044688503E-3
17.03	9.493311964E-4	3.077861487E-4	2.031938578E-3
17.04	1.222166120E-3	3.013057415E-4	1.749029664E-3
17.05	9.212374063E-4	3.043405307E-4	7.617796414E-4
17.06	5.835670748E-4	3.077861487E-4	1.073688969E-3
17.07	-7.168925989E-4	3.010827440E-4	1.404109167E-3
17.080000000000002	-6.854207389E-4	3.045640473E-4	1.404109167E-3
17.09	-1.037917256E-3	3.077861487E-4	1.404109167E-3
17.1	-1.332581141E-3	3.077861487E-4	7.253747979E-4
17.11	-6.334484517E-4	3.077861487E-4	4.241093420E-4
17.12	3.427610220E-4	3.077861487E-4	-2.692346267E-4
17.13	-6.992264194E-5	3.149355235E-4	1.447483890E-4
17.14	1.054898801E-3	3.177861434E-4	1.131998416E-3
17.150000000000002	1.778831037E-4	3.104888071E-4	6.889699545E-4
17.16	3.685851788E-4	3.077861487E-4	-2.982802392E-4
17.17	6.161217643E-4	3.077861487E-4	-5.558908559E-4
17.18	-1.158033044E-4	3.153054271E-4	9.178885029E-4
17.19	-1.085500886E-3	3.101916890E-4	-8.440470422E-5
17.2	-5.572198954E-4	3.077861487E-4	-5.558908559E-4
17.21	-3.186901124E-4	3.077861487E-4	-5.558908559E-4
17.22	-1.082477328E-3	3.156029244E-4	2.101537258E-4
17.23	-5.152476250E-4	3.256768996E-4	-3.491853311E-4
17.240000000000002	1.222797457E-3	3.198214008E-4	1.005198490E-3
17.25	8.257723330E-4	1.113619585E-3	-9.592749679E-4
17.26	6.335670830E-4	5.127412307E-4	5.419913908E-5
17.27	6.253790860E-4	1.916252793E-3	1.226530533E-3
17.28	-1.696077937E-4	6.401251625E-4	5.944099484E-4
17.29	4.638441361E-4	3.061223672E-4	4.241093420E-4
17.3	-1.922223105E-4	2.993759435E-4	-2.048489640E-3
17.31	-1.177882607E-3	1.137720070E-3	-1.684440961E-3
17.32	-1.317874700E-3	4.490863131E-4	9.802086911E-4
17.330000000000002	3.668349225E-4	3.164182869E-4	-1.979690823E-3
17.34	-1.055686762E-3	3.177861434E-4	-8.092219944E-4
17.35	2.109639705E-3	3.177861434E-4	3.047137627E-4
17.36	-2.285401279E-6	3.266417979E-4	-3.047308772E-3
17.37	2.271021716E-3	3.188565032E-4	-2.620786140E-3
17.38	-9.188413867E-4	3.267897594E-4	-1.633535864E-3
17.39	-4.259055830E-4	3.187085417E-4	-1.535890681E-3
17.400000000000002	-3.272813322E-4	3.086345659E-4	-1.535890681E-3
17.41	-3.172058946E-4	3.170131594E-4	-1.535890681E-3
17.42	1.487983896E-3	3.084850308E-4	-6.243813172E-4
17.43	-2.139522753E-4	3.265363364E-4	-5.558908559E-4
17.44	-1.252993565E-3	3.183370639E-4	-1.481900453E-3
17.45	-3.636499237E-4	3.177861434E-4	-2.469150794E-3
17.46	6.050280725E-4	3.177861434E-4	-1.575232579E-3
17.47	-2.850020920E-4	3.177861434E-4	-5.879764774E-4
17.48	6.289850105E-4	3.177861434E-4	-2.466219953E-3
17.490000000000002	-1.261441558E-3	-1.577581417E-3	-1.553476077E-3
17.5	1.592772323E-3	3.172211540E-4	-1.535890681E-3
17.51	6.366837206E-4	-6.291601393E-4	-2.512805722E-3
17.52	-1.302267871E-3	3.337061341E-4	-1.540055693E-3
17.53	-3.264329160E-4	-6.335142079E-4	-2.504474000E-3
17.54	-3.264329160E-4	-1.573202231E-3	-1.517071228E-3
17.55	-3.522365205E-4	-5.764102150E-4	-5.819604727E-4
17.56	-1.230133510E-3	3.351464414E-4	-1.569210381E-3
17.57	6.531530064E-4	-5.917997932E-4	-2.434738387E-3
17.580000000000002	6.425881535E-4	-5.822138528E-4	-6.038575319E-4
17.59	6.780752102E-4	-5.822138528E-4	-1.535890681E-3
17.6	1.592931098E-3	-6.426357652E-4	-1.473560718E-3
17.61	1.582855486E-3	-1.394187688E-3	-5.558908559E-4
17.62	1.495806825E-3	4.077861419E-4	-6.328655453E-4
17.63	4.168363911E-4	3.252802391E-4	-1.535890681E-3
17.64	-1.263091117E-3	-5.512803945E-4	-1.627365638E-3
17.650000000000002	-3.564329116E-4	-4.455036095E-4	-2.417165842E-3
17.66	-4.613432180E-4	4.188676985E-4	-1.429898837E-3
17.67	-1.325275915E-3	4.266292195E-4	-6.692703851E-4
17.68	-9.569492399E-4	4.177861481E-4	-1.415242088E-3
17.69	1.600954153E-3	4.177861481E-4	-6.839248392E-4
17.7	1.448304101E-3	2.852837424E-4	-1.400627829E-3
17.71	7.445164274E-4	-4.012644740E-4	-9.845512175E-4
17.72	1.422254183E-3	4.262577413E-4	-3.055008956E-3
17.73	7.389991516E-4	4.177861481E-4	-3.988563444E-4
17.740000000000002	1.226622655E-3	4.177861481E-4	9.548833254E-5
17.75	-2.265225710E-4	4.177861481E-4	-1.535890681E-3
17.76	3.984033156E-4	4.196107720E-4	-1.178264634E-3
17.77	-3.845330158E-4	4.277861544E-4	4.241093420E-4
17.78	-3.744593397E-4	4.277861544E-4	2.307004266E-4
17.79	-3.643862986E-4	4.257395537E-4	-5.558908559E-4
17.8	-3.564329116E-4	4.199079818E-4	-3.479512473E-4
17.81	-3.542370969E-4	4.255903397E-4	2.089195858E-4
17.82	9.163728906E-5	4.177861481E-4	-5.558908559E-4
17.830000000000002	1.351533259E-3	4.177861481E-4	-9.651095432E-5
17.84	5.935670578E-4	4.177861481E-4	1.167169169E-3
17.85	1.126619053E-4	4.152944100E-4	6.682994819E-4
17.86	-1.082386949E-3	4.052200193E-4	1.152629363E-3
17.87	-9.287080233E-5	3.977861356E-4	4.241093420E-4
17.88	-1.684257685E-4	3.950708872E-4	6.902040889E-4
17.89	-1.181250239E-3	3.877861525E-4	1.130721307E-3
17.900000000000002	5.120291861E-4	3.849213623E-4	4.241093420E-4
17.91	-1.398447203E-3	3.748478373E-4	1.000017482E-3
17.92	3.744941732E-4	3.677861400E-4	1.498823373E-3
17.93	-2.933472601E-4	6.609221435E-4	4.889504547E-5
17.94	2.015611606E-5	1.011197078E-3	1.094359482E-3
17.95	9.908628795E-4	3.445514560E-4	7.411091615E-4
17.96	1.623641058E-3	3.377861444E-4	1.404109167E-3
17.97	1.268684332E-3	3.377861444E-4	7.411089367E-4
17.98	-6.047672021E-5	3.343295073E-4	-2.171405737E-4
17.990000000000002	-6.513855925E-4	3.242549682E-4	7.805443684E-5
18.0	-9.242382160E-5	6.675846927E-4	5.043233234E-4
18.01	-9.584177430E-4	9.197710115E-4	2.384109179E-3
18.02	-3.264329160E-4	2.877861478E-4	1.648299325E-3
18.03	-3.226048007E-4	2.877861478E-4	4.241093420E-4
18.04	5.432437710E-5	2.877861478E-4	1.953970910E-3
18.05	2.477958735E-4	2.838091271E-4	3.564612658E-3
18.06	4.452278028E-4	2.777861531E-4	2.384109179E-3
18.07	7.933781977E-4	2.819108361E-4	1.979890031E-3
18.080000000000002	4.598885085E-4	2.877861478E-4	1.815669086E-3
18.09	3.299576169E-4	2.877861478E-4	2.384109179E-3
18.1	-1.323390247E-3	2.834385976E-4	1.958049023E-3
18.11	-4.486554145E-4	2.777861531E-4	1.837419447E-3
18.12	1.974335898E-4	2.777861531E-4	1.943479451E-3
18.13	1.069607874E-4	2.777861531E-4	9.561444835E-4
18.14	1.922873504E-4	2.731411004E-4	1.789753928E-3
18.150000000000002	1.366653156E-4	2.725059231E-4	2.439033613E-3
18.16	-2.817879219E-4	2.777861531E-4	1.404109167E-3
18.17	-1.281565078E-3	2.826539509E-4	1.404109167E-3
18.18	-3.228251007E-4	2.828451774E-4	1.888324529E-3
18.19	1.720557379E-4	2.777861531E-4	1.401023618E-3
18.2	1.873464291E-4	-2.058121438E-4	4.241093420E-4
18.21	6.584025739E-4	-1.712583486E-4	9.302292190E-4
18.22	1.505947817E-4	3.030254405E-4	1.404109167E-3
18.23	2.037134845E-4	3.077861487E-4	1.924883637E-3
18.240000000000002	6.481790523E-4	3.077861487E-4	2.912133763E-3
18.25	-4.051343358E-4	3.077861487E-4	2.828834484E-3
18.26	-7.339080577E-4	-2.292026744E-4	1.299059642E-3
18.27	-2.964328971E-4	-6.566038712E-4	4.241093420E-4
18.28	2.549950250E-4	-1.007858982E-4	1.538334789E-3
18.29	6.678075875E-4	3.177861434E-4	1.255250424E-3
18.3	9.772100359E-5	3.236196051E-4	-1.475703237E-4
18.31	1.412363273E-3	3.159731122E-4	2.294783724E-5
18.32	8.571752551E-4	3.137669395E-4	-1.620085839E-4
18.330000000000002	2.709415533E-4	3.177861434E-4	3.753915904E-5
18.34	-5.294047662E-4	-2.706350968E-4	1.024789259E-3
18.35	-6.622993864E-4	-4.048709331E-5	1.404109167E-3
18.36	-2.801545726E-4	-2.812125912E-4	7.888321989E-4
18.37	-2.764329078E-4	-2.598212280E-5	4.241093420E-4
18.38	3.405480627E-4	-9.061757132E-4	1.053943971E-3
18.39	5.298307989E-5	-3.245449184E-4	1.299394044E-4
18.400000000000002	-2.864329141E-4	-2.733991105E-4	7.327791129E-4
18.41	1.003439613E-3	-5.955650024E-4	1.404109167E-3
18.42	9.880090411E-4	5.317574348E-5	7.452740726E-4
18.43	1.097263665E-5	3.677861400E-4	-2.420809689E-4
18.44	-2.826882163E-4	3.677861400E-4	1.175990039E-4
18.45	-2.764329078E-4	3.677861400E-4	-2.566306185E-4
18.46	-9.574025502E-4	3.677861400E-4	-5.558908559E-4
18.47	-5.370042747E-4	3.606918657E-4	-5.558908559E-4
18.48	4.418290518E-4	3.577861569E-4	-5.558908559E-4
18.490000000000002	-6.917344241E-4	3.577861569E-4	-1.265785303E-3
18.5	-5.092882460E-4	3.577861569E-4	-8.187461398E-4
18.51	-2.538247007E-4	-3.592168738E-4	-5.558908559E-4
18.52	4.677462258E-4	1.119652959E-4	-1.287535630E-3
18.53	7.060273191E-4	3.577861569E-4	-7.969957655E-4
18.54	7.035670572E-4	-3.731315128E-4	-5.558908559E-4
18.55	7.035670572E-4	1.359221827E-4	1.976231501E-4
18.56	-4.170606082E-5	3.577861569E-4	4.241093420E-4
18.57	1.256154787E-3	3.577861569E-4	4.241093420E-4
18.580000000000002	1.387897285E-4	3.577861569E-4	-1.126490471E-3
18.59	-2.664329015E-4	3.577861569E-4	2.920930996E-5
18.6	-2.583737302E-4	3.577861569E-4	-3.656909517E-4
18.61	-2.564329185E-4	1.146703217E-3	-1.352940936E-3
18.62	5.315771371E-4	5.233592006E-4	-7.314638725E-4
18.63	7.035670572E-4	3.395034439E-4	-2.179300370E-3
18.64	1.514165154E-3	3.377861444E-4	-5.902619655E-5
18.650000000000002	8.389314285E-4	3.377861444E-4	4.241093420E-4
18.66	-1.413833378E-4	3.462907933E-4	-4.093458943E-4
18.67	5.456936867E-4	3.306288904E-4	-2.237301318E-3
18.68	-1.472138128E-4	3.277861381E-4	-3.363979246E-3
18.69	-2.677047424E-4	3.277861381E-4	-7.445190106E-5
18.7	5.873747551E-4	3.277861381E-4	-4.385006663E-4
18.71	-1.009524390E-3	3.189100212E-4	-2.295610705E-3
18.72	-3.582729509E-4	3.177861434E-4	-7.616707165E-4
18.73	-2.564329185E-4	3.087620651E-4	-2.324611176E-3
18.740000000000002	6.169812385E-4	3.168842082E-4	-1.624280391E-3
18.75	-1.769492161E-4	3.177861434E-4	-1.535890681E-3
18.76	6.405727539E-4	3.177861434E-4	-1.535890681E-3
18.77	6.949239134E-4	3.271077192E-4	-6.223759232E-4
18.78	-2.084067765E-4	3.183905819E-4	-1.476655688E-3
18.79	2.489203871E-3	3.272556808E-4	-3.391920666E-3
18.8	7.634930744E-4	3.277861381E-4	-1.625360203E-3
18.81	-2.593307893E-4	3.374036481E-4	-1.535890681E-3
18.82	-2.964328971E-4	3.280946539E-4	-1.535890681E-3
18.830000000000002	-2.964328971E-4	3.277861381E-4	-2.493057121E-3
18.84	-2.964328971E-4	3.277861381E-4	-2.515890879E-3
18.85	6.554071548E-4	3.277861381E-4	-1.544220605E-3
18.86	6.635670786E-4	3.377751264E-4	-1.535890681E-3
18.87	6.635041160E-4	3.377861444E-4	-2.509720564E-3
18.88	6.405574008E-4	3.377861444E-4	-1.549311164E-3
18.89	-2.555072057E-4	3.377861444E-4	-2.515890879E-3
18.900000000000002	1.587703671E-3	3.380726234E-4	-2.515890879E-3
18.91	-2.711078138E-4	3.477861506E-4	-2.551215950E-3
18.92	6.314263404E-4	3.477861506E-4	-3.495890332E-3
18.93	-2.964328971E-4	3.477861506E-4	-3.446065034E-3
18.94	-2.399310104E-4	3.477861506E-4	-2.572975230E-3
18.95	6.097452446E-4	3.477861506E-4	-3.366930802E-3
18.96	-2.261557725E-4	3.470540968E-4	-1.535890681E-3
18.97	5.852525836E-4	3.377861444E-4	-1.615012560E-3
18.98	-3.055530032E-4	2.533157734E-4	-2.429660689E-3
18.990000000000002	-2.945251380E-4	-6.212599529E-4	-1.629370950E-3
19.0	-1.777582227E-4	-6.111859840E-4	-2.415160451E-3
19.01	4.708781764E-4	-4.942163415E-4	-1.643888184E-3
19.02	-1.246432890E-3	2.647560761E-4	-2.631275678E-3
19.03	-1.122546497E-3	-4.608302111E-4	-3.495890332E-3
19.04	-1.291985379E-4	3.864607935E-4	-3.495890332E-3
19.05	5.692304851E-4	2.434495709E-4	-3.358755154E-3
19.06	-1.149942246E-4	-7.251258605E-4	-2.515890879E-3
19.07	5.534788750E-4	-1.248942820E-3	-2.667526284E-3
19.080000000000002	-2.648116229E-4	4.061648595E-4	-3.178119241E-3
19.09	7.249978092E-5	2.333197839E-4	-1.702052603E-3
19.1	1.340028428E-3	-5.704430089E-4	-2.689430883E-3
19.11	-2.564329185E-4	-5.622138402E-4	-3.315071793E-3
19.12	-7.015870696E-5	-5.602934818E-4	-2.704085337E-3
19.13	7.095784167E-4	-5.522138106E-4	-3.105000979E-3
19.14	4.929721771E-4	-3.516189183E-4	-1.941216388E-3
19.150000000000002	-6.875029203E-5	4.199272074E-4	-3.286066772E-3
19.16	9.107620931E-4	4.277861544E-4	-2.733085795E-3
19.17	1.446831576E-3	-1.652369824E-5	-3.271445275E-3
19.18	6.812024746E-4	-1.278117499E-3	-2.515890879E-3
19.19	1.978824778E-4	-2.880306349E-4	-2.996454260E-3
19.2	-5.453829296E-4	-4.706829340E-5	-3.990987524E-3
19.21	1.382668087E-3	-1.233555131E-3	-2.769376303E-3
19.22	6.609053357E-4	-2.340255370E-4	-3.759402193E-3
19.23	6.535670490E-4	2.151161208E-4	-3.946869968E-3
19.240000000000002	3.837275912E-4	-4.822138364E-4	-2.240429697E-3
19.25	-2.959991092E-5	-2.024971582E-4	-1.818491099E-3
19.26	6.535670490E-4	4.877861457E-4	-3.098549482E-3
19.27	3.625297436E-4	4.847545050E-4	-3.591557263E-3
19.28	-6.077254386E-4	4.746800286E-4	-1.535890681E-3
19.29	-9.678589240E-4	4.709673097E-4	-1.847645854E-3
19.3	1.262250080E-5	4.745304698E-4	-2.834946117E-3
19.31	3.504881987E-4	4.677861331E-4	-2.843071275E-3
19.32	-2.930287476E-4	4.677861331E-4	-1.535890681E-3
19.330000000000002	-2.864329141E-4	4.677861331E-4	-2.217509046E-3
19.34	5.817439142E-5	4.642334865E-4	-3.495890332E-3
19.35	6.799404472E-4	4.614127772E-4	-3.495890332E-3
19.36	-4.435206276E-5	4.677861331E-4	-3.495890332E-3
19.37	-8.965225806E-4	4.715607303E-4	-2.756069869E-3
19.38	-6.559543637E-4	4.816353236E-4	-2.290330192E-3
19.39	-4.812274362E-4	4.877861457E-4	-3.111325744E-3
19.400000000000002	-6.794694214E-5	4.877861457E-4	-2.907643887E-3
19.41	-8.274593675E-4	4.877861457E-4	-3.096917003E-3
19.42	1.557361546E-4	4.836400701E-4	-2.922205799E-3
19.43	7.193470232E-4	4.777861394E-4	-3.082325290E-3
19.44	-5.361935554E-4	4.777861394E-4	-2.515890879E-3
19.45	-9.207136059E-4	4.734172351E-4	-2.944042985E-3
19.46	7.191243821E-4	4.677861331E-4	-3.060506444E-3
19.47	1.151700496E-3	4.632693009E-4	-2.515890879E-3
19.48	1.229089691E-3	4.531954671E-4	-2.515890879E-3
19.490000000000002	6.935670742E-4	4.477861438E-4	-2.973110858E-3
19.5	-2.260394297E-4	4.525263865E-4	-3.960433926E-3
19.51	-7.746324055E-4	4.577861500E-4	-4.004089945E-3
19.52	2.077248728E-4	4.528979223E-4	-3.495890332E-3
19.53	1.184978981E-3	4.477861438E-4	-3.009515638E-3
19.54	6.963908595E-4	4.477861438E-4	-3.009515687E-3
19.55	-2.664329015E-4	4.477861438E-4	-3.495890332E-3
19.56	2.314008390E-4	4.529719153E-4	-4.009281580E-3
19.57	6.883065760E-4	4.577861500E-4	-4.485890699E-3
19.580000000000002	1.714562554E-4	4.524516588E-4	-4.485890699E-3
19.59	7.674015183E-4	4.531946159E-4	-3.420422460E-3
19.6	1.116286998E-3	4.577861500E-4	-3.595933325E-3
19.61	-9.489105504E-4	4.522297162E-4	-3.935803894E-3
19.62	-5.967224532E-4	4.477861438E-4	-2.944110357E-3
19.63	1.359454681E-4	4.477861438E-4	-3.074920975E-3
19.64	-1.391834469E-3	4.477861438E-4	-2.929520951E-3
19.650000000000002	7.074480509E-5	4.477861438E-4	-3.089575453E-3
19.66	1.102632003E-3	4.477861438E-4	-4.076825470E-3
19.67	1.213838419E-4	4.417842509E-4	-3.887705282E-3
19.68	3.168506012E-4	4.377861375E-4	-3.495890332E-3
19.69	6.935670742E-4	4.254845057E-4	-4.098670730E-3
19.7	9.592816030E-5	4.177861481E-4	-3.865800667E-3
19.71	3.446075566E-4	4.114867577E-4	-3.495890332E-3
19.72	7.035670572E-4	-2.040570691E-4	-3.495890332E-3
19.73	7.817432446E-5	-5.457664735E-4	-4.127730567E-3
19.740000000000002	3.596146361E-4	9.035504279E-5	-5.121502309E-3
19.75	6.041736525E-5	-8.385133249E-4	-3.520274543E-3
19.76	-2.597636226E-4	-8.386234052E-4	-3.169480960E-3
19.77	1.051967514E-3	-5.054695110E-4	-3.495890332E-3
19.78	1.015322074E-3	1.592122700E-4	-3.495890332E-3
19.79	2.033878738E-3	-2.008161049E-4	-4.178278449E-3
19.8	1.261109890E-3	1.735645450E-4	-3.796178461E-3
19.81	-1.234666017E-5	-2.081275893E-4	-3.495890332E-3
19.82	-9.794488123E-4	-1.182344455E-3	-3.495890332E-3
19.830000000000002	1.532794267E-3	-6.041150064E-5	-3.495890332E-3
19.84	1.192587832E-3	4.877861457E-4	-3.495890332E-3
19.85	-5.090642868E-5	4.877861457E-4	-4.222378911E-3
19.86	4.051427074E-4	-2.312017334E-4	-4.485890699E-3
19.87	6.535670490E-4	2.514364358E-4	-3.744753916E-3
19.88	-7.221287332E-5	-9.688941357E-4	-4.985251715E-3
19.89	-3.064329034E-4	-6.939455536E-4	-4.717622484E-3
19.900000000000002	-3.064329034E-4	-4.545053068E-4	-2.967310416E-3
19.91	-3.064329034E-4	-4.522138408E-4	-4.811986611E-3
19.92	-2.985751931E-4	3.099835706E-4	-3.917922486E-3
19.93	1.234382452E-3	5.098544503E-4	-3.495890332E-3
19.94	-7.040876890E-4	-2.687635327E-4	-5.073007187E-3
19.95	-4.946274499E-4	-4.622138238E-4	-5.465890897E-3
19.96	1.275371019E-3	-4.622138238E-4	-3.859625599E-3
19.97	2.095569763E-5	-4.539862287E-4	-4.310423934E-3
19.98	-1.123511001E-3	3.448642247E-4	-2.850220194E-3
19.990000000000002	-4.654726877E-4	5.077861350E-4	-4.166188309E-3
20.0	5.133262578E-4	4.993350238E-4	-4.485890699E-3
20.01	-9.817784545E-4	4.977861519E-4	-3.641904825E-3
20.02	-1.249232003E-3	4.977861519E-4	-3.495890332E-3
20.03	4.451222480E-4	4.891115045E-4	-4.346005417E-3
20.04	-9.849171920E-4	4.877861457E-4	-2.761160700E-3
20.05	-1.226432924E-3	4.877861457E-4	-4.245120868E-3
20.06	-3.545676091E-4	4.788895553E-4	-3.604025049E-3
20.07	-1.107607123E-3	4.777861394E-4	-3.495890332E-3
20.080000000000002	-3.200673550E-4	4.687415873E-4	-3.495890332E-3
20.09	-1.110929976E-3	4.677861331E-4	-4.389506131E-3
20.1	1.488201857E-3	4.585921940E-4	-3.574882791E-3
20.11	-8.370514602E-5	4.577861500E-4	-4.404160670E-3
20.12	1.585923484E-3	4.484441010E-4	-5.400753146E-3
20.13	7.907966650E-4	4.477861438E-4	-5.465890897E-3
20.14	-1.869633686E-4	4.382961330E-4	-2.666339479E-3
20.150000000000002	-2.268689139E-4	4.377861375E-4	-2.515890879E-3
20.16	-2.264328996E-4	4.377861375E-4	-2.515890879E-3
20.17	-1.158784222E-3	4.474981365E-4	-4.419441158E-3
20.18	7.221235080E-4	4.379986686E-4	-4.475890530E-3
20.19	1.700407973E-3	4.377861375E-4	-2.543040251E-3
20.2	-1.178107945E-3	4.377861375E-4	-4.463547963E-3
20.21	-1.184600405E-3	4.277861544E-4	-3.494964640E-3
20.22	7.453234396E-4	4.277011686E-4	-2.532548100E-3
20.23	-2.013195551E-4	4.177861481E-4	-4.475890530E-3
20.240000000000002	6.983726846E-4	4.177861481E-4	-4.453060365E-3
20.25	-1.136579176E-3	4.177861481E-4	-3.525970663E-3
20.26	7.531860837E-4	4.174051655E-4	-4.438554250E-3
20.27	7.435670824E-4	4.077861419E-4	-3.495890332E-3
20.28	7.430381968E-4	4.077861419E-4	-3.495890332E-3
20.29	7.335670528E-4	4.083891024E-4	-3.554980444E-3
20.3	6.677603046E-4	4.171077276E-4	-4.409405345E-3
20.31	-1.634500626E-4	4.077861419E-4	-3.495890332E-3
20.32	7.335670528E-4	4.069597596E-4	-3.495890332E-3
20.330000000000002	7.326666923E-4	3.977861356E-4	-3.407654898E-3
20.34	5.354892082E-4	3.977861356E-4	-2.706892203E-3
20.35	-1.002784680E-3	3.977861356E-4	-4.270142907E-3
20.36	8.413252770E-4	3.977861356E-4	-2.515890879E-3
20.37	1.576176721E-3	3.965882779E-4	-2.633281066E-3
20.38	5.901985926E-4	3.877861525E-4	-3.495890332E-3
20.39	3.351486651E-6	1.280017411E-4	-3.495890332E-3
20.400000000000002	1.532872906E-3	-1.265089069E-3	-3.356617461E-3
20.41	3.952215938E-4	4.062921228E-4	-2.515890879E-3
20.42	-9.420292725E-4	3.977861356E-4	-2.825001746E-3
20.43	5.342927840E-4	3.977861356E-4	-4.484248668E-3
20.44	-2.764329078E-4	3.977861356E-4	-4.307595161E-3
20.45	-1.026514249E-4	2.257962155E-4	-3.144744299E-3
20.46	6.935670742E-4	-3.811308815E-4	-1.718840515E-3
20.47	3.171080600E-4	4.077861419E-4	-2.706060794E-3
20.48	-8.517791434E-4	4.077861419E-4	-3.693217247E-3
20.490000000000002	5.109556823E-4	2.072635258E-4	-3.861790019E-3
20.5	-4.640576579E-4	-3.445890662E-4	-1.747840994E-3
20.51	-5.632022275E-4	4.077861419E-4	-2.735125693E-3
20.52	1.250357534E-3	4.077861419E-4	-3.042680830E-3
20.53	-2.540466427E-4	4.077861419E-4	-1.535890681E-3
20.54	-7.788145041E-6	4.077861419E-4	-2.018100649E-3
20.55	7.235670698E-4	1.644995054E-4	-3.247535350E-3
20.56	2.175730005E-4	-5.522138106E-4	-2.771495999E-3
20.57	-6.960865505E-4	-2.947228612E-4	-3.233035122E-3
20.580000000000002	4.562177556E-4	4.077861419E-4	-3.056101778E-3
20.59	2.997877667E-4	4.049559809E-4	-4.475890530E-3
20.6	1.117170503E-3	1.189447844E-4	-3.906589525E-3
20.61	-2.664329015E-4	-2.761631288E-4	-2.515890879E-3
20.62	-5.595396128E-4	1.016262489E-4	-2.515890879E-3
20.63	-9.169507682E-4	-5.722138232E-4	-2.822246776E-3
20.64	-2.364329059E-4	-2.617588127E-4	-4.126402262E-3
20.650000000000002	3.991371022E-4	3.977861356E-4	-4.820492313E-3
20.66	1.050191190E-3	7.277351003E-5	-3.167527230E-3
20.67	8.565431665E-5	-2.401266023E-4	-3.186912389E-3
20.68	1.062883782E-3	3.977861356E-4	-4.133075599E-3
20.69	1.343456838E-3	4.013586905E-4	-3.145780361E-3
20.7	6.224513644E-6	5.411486377E-5	-2.873208060E-3
20.71	-1.579935178E-3	-5.584927523E-4	-3.495890332E-3
20.72	-1.064305814E-3	-5.484181616E-4	-3.495890332E-3
20.73	3.781176529E-4	-1.667644106E-4	-4.258401236E-3
20.740000000000002	-2.164329050E-4	4.238415587E-4	-4.688805793E-3
20.75	-2.204514770E-4	4.177861481E-4	-3.495890332E-3
20.76	1.705449188E-4	4.136935907E-4	-3.495890332E-3
20.77	7.435670824E-4	4.077861419E-4	-3.904275225E-3
20.78	7.435670824E-4	4.077861419E-4	-4.060165563E-3
20.79	-8.943468285E-5	4.077861419E-4	-3.072915574E-3
20.8	9.526065919E-5	4.033967776E-4	-3.376205587E-3
20.81	1.724640769E-3	3.977861356E-4	-3.601110990E-3
20.82	8.286544100E-4	4.023241522E-4	-3.405341428E-3
20.830000000000002	2.109305479E-4	4.077861419E-4	-4.475890530E-3
20.84	7.241951179E-4	4.124721202E-4	-4.016664848E-3
20.85	1.175355447E-3	4.130254399E-4	-3.962439545E-3
20.86	7.454778878E-4	4.029506278E-4	-4.002010354E-3
20.87	-2.564329185E-4	3.977861356E-4	-3.495890332E-3
20.88	2.269639289E-4	3.928026714E-4	-3.007510287E-3
20.89	2.229941023E-4	3.877861525E-4	-4.007839647E-3
20.900000000000002	-2.564329185E-4	3.877861525E-4	-4.454998064E-3
20.91	2.433656059E-4	3.877861525E-4	-3.495890332E-3
20.92	-3.207798896E-4	3.825060102E-4	-2.978436999E-3
20.93	-1.236432907E-3	3.777861463E-4	-3.565152504E-3
20.94	3.540330151E-4	3.777861463E-4	-3.943925687E-3
20.95	6.260020460E-4	3.777861463E-4	-2.956605229E-3
20.96	2.889488180E-4	3.777861463E-4	-2.515890879E-3
20.97	1.710831941E-4	3.777861463E-4	-2.515890879E-3
20.98	3.031531302E-4	3.777861463E-4	-3.076926318E-3
20.990000000000002	1.509915170E-4	3.777861463E-4	-3.495890332E-3
21.0	-2.505585245E-4	3.836605403E-4	-4.071580702E-3
21.01	9.075509952E-4	3.877861525E-4	-3.892950049E-3
21.02	1.693566959E-3	3.877861525E-4	-4.086080942E-3
21.03	5.108785056E-4	3.816898161E-4	-3.878449811E-3
21.04	9.506078366E-4	3.839564637E-4	-2.891199942E-3
21.05	-1.235225394E-4	3.815418544E-4	-3.127831371E-3
21.06	-1.203794330E-3	3.777861463E-4	-3.495890332E-3
21.07	5.036393621E-5	3.713923122E-4	-3.495890332E-3
21.080000000000002	1.374476918E-3	3.677861400E-4	-4.129735905E-3
21.09	4.379177361E-4	3.743279357E-4	-3.193699603E-3
21.1	-2.364329059E-4	3.711703698E-4	-3.164236197E-3
21.11	-8.853389397E-4	3.677861400E-4	-4.151486279E-3
21.12	7.553587237E-4	3.745509432E-4	-3.812940095E-3
21.13	1.023316755E-3	3.777861463E-4	-4.166140758E-3
21.14	7.066537967E-4	3.708728722E-4	-3.798389965E-3
21.150000000000002	3.279104826E-5	3.538116469E-4	-3.495890332E-3
21.16	-2.564329185E-4	3.477861506E-4	-4.187891136E-3
21.17	1.127798106E-3	3.477861506E-4	-3.776639627E-3
21.18	9.770661332E-4	3.477861506E-4	-4.202391376E-3
21.19	-3.011991834E-6	-3.515086073E-4	-3.762026986E-3
21.2	-2.664329015E-4	-6.048550983E-4	-3.495890332E-3
21.21	-2.515674908E-4	1.187589556E-4	-4.224295993E-3
21.22	4.742093154E-4	-3.603627473E-4	-3.740234773E-3
21.23	7.059863934E-4	1.331112303E-4	-2.752984996E-3
21.240000000000002	-3.893410322E-5	3.677861400E-4	-2.515890879E-3
21.25	4.832444222E-4	3.677861400E-4	-4.030702585E-3
21.26	6.957632287E-4	-3.891864838E-4	-2.946337807E-3
21.27	1.457749310E-3	1.619684352E-4	-3.287950902E-3
21.28	8.763043008E-4	3.677861400E-4	-2.716580166E-3
21.29	6.655409458E-4	3.677861400E-4	-3.302451130E-3
21.3	6.554656692E-4	-4.099468379E-4	-2.701955007E-3
21.31	-9.240878798E-4	2.007008489E-4	-2.515890879E-3
21.32	-4.679945998E-4	3.777861463E-4	-1.707452429E-3
21.330000000000002	-2.964328971E-4	3.694625140E-4	-1.535890681E-3
21.34	5.097374035E-4	-4.383841607E-4	-2.358856383E-3
21.35	-1.497054115E-4	-5.837422615E-4	-3.346106104E-3
21.36	1.353121635E-3	-1.402717639E-3	-1.820695318E-3
21.37	7.802100749E-4	1.386408272E-4	-2.380628075E-3
21.38	6.435670660E-4	3.990912366E-4	-4.228785973E-3
21.39	2.336000476E-3	3.977861356E-4	-1.899010451E-3
21.400000000000002	-8.752288883E-4	3.889430839E-4	-1.535890681E-3
21.41	4.034742204E-4	3.877861525E-4	-6.620202193E-4
21.42	1.494687897E-3	3.787951186E-4	-2.318132426E-3
21.43	-1.941786170E-3	3.777861463E-4	-2.515890879E-3
21.44	3.712911138E-4	3.686471506E-4	-7.246488347E-4
21.45	6.235670534E-4	3.585731853E-4	-5.558908559E-4
21.46	6.049902588E-4	-5.246130806E-4	-5.558908559E-4
21.47	-3.045960141E-4	3.065867534E-4	-5.558908559E-4
21.48	5.394697863E-4	3.583496693E-4	3.688850301E-4
21.490000000000002	-3.194378225E-4	3.577861569E-4	-2.371968453E-3
21.5	5.536740978E-4	-5.719053345E-4	3.019371368E-4
21.51	-3.337880600E-4	3.151413144E-4	4.241093420E-4
21.52	5.680295648E-4	3.380521601E-4	4.241093420E-4
21.53	1.535131627E-3	3.377861444E-4	-5.370713977E-4
21.54	-3.734123913E-4	3.377861444E-4	4.125400511E-4
21.55	5.593359906E-4	3.278302117E-4	4.241093420E-4
21.56	5.506660389E-4	3.178160510E-4	-5.588218034E-4
21.57	-4.064596618E-4	3.276822502E-4	-1.505347631E-3
21.580000000000002	5.094107833E-4	3.176082463E-4	1.421543096E-3
21.59	-1.351090449E-3	3.077861487E-4	2.334438065E-3
21.6	-2.821255970E-4	3.077861487E-4	4.562000164E-4
21.61	2.425002389E-3	3.077861487E-4	1.325141587E-3
21.62	5.530917118E-4	3.073107825E-4	-5.558908559E-4
21.63	4.908214119E-4	2.977861425E-4	-3.943573306E-4
21.64	-4.158080987E-4	2.977861425E-4	2.445339950E-3
21.650000000000002	-3.387832914E-4	2.984835615E-4	3.227415136E-3
21.66	4.885992885E-4	3.077861487E-4	1.479849809E-3
21.67	-2.438388404E-4	3.069393042E-4	2.384109179E-3
21.68	1.335847804E-3	2.968653177E-4	2.203627442E-3
21.69	-4.164329028E-4	2.887809529E-4	4.241093420E-4
21.7	-2.111935216E-4	2.967171879E-4	6.336245366E-4
21.71	1.281599649E-3	3.953373438E-4	2.608364857E-3
21.72	-3.196066707E-4	1.226569208E-3	4.105588868E-3
21.73	6.463358920E-4	1.089848135E-3	2.384109179E-3
21.740000000000002	1.469467551E-3	2.277861449E-4	2.518026057E-3
21.75	1.300847472E-3	2.277861449E-4	3.364109191E-3
21.76	1.627862137E-4	2.262716621E-4	3.512528574E-3
21.77	-1.158011661E-3	2.177861503E-4	4.188308705E-3
21.78	3.138440697E-4	2.194499307E-4	3.527159745E-3
21.79	-3.196077934E-4	2.260483841E-4	4.173808469E-3
21.8	4.717550503E-4	2.159741220E-4	3.186530424E-3
21.81	1.012629356E-4	2.058991489E-4	2.569035261E-3
21.82	-1.450553784E-3	1.977861493E-4	3.364109191E-3
21.830000000000002	-1.225098061E-3	1.977861493E-4	3.364109191E-3
21.84	-2.361731133E-4	1.956781513E-4	3.775168781E-3
21.85	5.113838368E-4	1.856029278E-4	4.674425397E-3
21.86	5.013098734E-4	1.777861484E-4	3.045469184E-3
21.87	2.674423892E-4	1.801173310E-4	5.087984408E-3
21.88	-1.456893707E-5	1.877861489E-4	4.813189701E-3
21.89	1.200494951E-3	1.877861489E-4	5.810445235E-3
21.900000000000002	-2.663283737E-5	1.877861489E-4	4.344109109E-3
21.91	-1.448550336E-3	1.851586293E-4	4.086612230E-3
21.92	-1.161572141E-3	1.750834885E-4	3.628969900E-3
21.93	-4.408787388E-4	1.677861508E-4	4.613485684E-3
21.94	-1.555169361E-4	1.677861508E-4	5.314109111E-3
21.95	7.984797332E-4	1.648615480E-4	5.314109111E-3
21.96	1.163708707E-3	1.577861504E-4	5.314109111E-3
21.97	1.716275409E-4	-1.310803308E-4	5.314109111E-3
21.98	-4.801366814E-4	-4.799943719E-4	5.314109111E-3
21.990000000000002	-1.603334079E-4	1.777861484E-4	5.629874907E-3
22.0	4.769749081E-4	-1.353415097E-4	5.971093160E-3
22.01	4.568269647E-4	-4.453178363E-4	5.314109111E-3
22.02	7.707511093E-4	1.977861493E-4	4.980037002E-3
22.03	1.045282774E-3	2.013041728E-4	4.685357371E-3
22.04	3.999750568E-4	2.041941457E-4	5.314109111E-3
22.05	4.529851794E-5	1.977861493E-4	5.673375611E-3
22.06	-5.526923501E-4	1.977861493E-4	5.927534770E-3
22.07	-1.801429550E-4	1.977861493E-4	5.314109111E-3
22.080000000000002	4.406446963E-5	1.938966478E-4	5.314109111E-3
22.09	-5.285059347E-4	-1.847811579E-4	5.314109111E-3
22.1	-5.123954444E-4	-3.605799431E-4	5.314109111E-3
22.11	-4.982087223E-4	2.136740594E-4	5.314109111E-3
22.12	3.090967814E-4	2.077861498E-4	5.314109111E-3
22.13	9.874691360E-4	2.077861498E-4	5.314109111E-3
22.14	4.048957941E-4	2.077861498E-4	5.314109111E-3
22.150000000000002	3.847460362E-4	2.077861498E-4	5.314109111E-3
22.16	3.690832764E-4	-2.092063208E-4	5.314109111E-3
22.17	-4.978231125E-4	-2.892399114E-4	5.314109111E-3
22.18	-1.072452073E-3	-2.122972810E-4	4.864760745E-3
22.19	-9.461485382E-5	-2.656893265E-4	4.344109109E-3
22.2	4.087866511E-4	2.477861459E-4	4.344109109E-3
22.21	-5.760090594E-5	2.477861459E-4	4.344109109E-3
22.22	-7.823677781E-5	2.428577680E-4	4.822162023E-3
22.23	-7.173204849E-5	2.327829995E-4	5.314109111E-3
22.240000000000002	-5.413549836E-4	2.328640643E-4	4.323915492E-3
22.25	-5.261291088E-4	2.326342510E-4	3.868995053E-3
22.26	4.660320933E-4	2.225602699E-4	4.851019257E-3
22.27	8.388810579E-4	2.124862915E-4	5.314109111E-3
22.28	-1.423214980E-4	2.077861498E-4	4.792846688E-3
22.29	-6.880849197E-5	2.077861498E-4	2.742197784E-3
22.3	-1.556301674E-4	2.077861498E-4	3.563748765E-3
22.31	4.982594140E-4	2.021887937E-4	4.222624763E-3
22.32	1.893686701E-3	1.977861493E-4	2.252527205E-3
